"Time (s)","Linear Acceleration x (m/s^2)","Linear Acceleration y (m/s^2)","Linear Acceleration z (m/s^2)","Absolute acceleration (m/s^2)"
1.482725000E-2,2.529701373E-1,7.948288344E-1,-1.845656664E0,2.025387688E0
2.475625000E-2,-6.490284390E-1,1.316574973E-1,1.504102671E0,1.643440433E0
3.468525000E-2,-8.518741241E-1,2.602229322E-1,4.262666988E-1,9.874759725E-1
4.461425000E-2,-2.407310379E-1,2.391152877E-1,-4.473821640E-1,5.614965308E-1
5.454325000E-2,-4.817099977E-1,2.399165938E-1,5.564953011E-1,7.741392084E-1
6.447325000E-2,-6.219675250E-1,1.390618265E-1,-3.889094228E-1,7.466139115E-1
7.440225000E-2,-5.525754008E-1,-3.518375639E-2,-8.245918930E-2,5.598008469E-1
8.433125000E-2,-4.655366722E-1,8.186032478E-2,2.451872009E-1,5.324868726E-1
9.426025000E-2,-7.328231324E-1,1.101064877E-1,8.150574231E-1,1.101576954E0
1.041892500E-1,-5.900043053E-1,1.890871319E-1,2.864205962E-1,6.825655878E-1
1.141192500E-1,-5.205548785E-1,2.552261758E-1,1.549102843E-2,5.799635802E-1
1.240482500E-1,-5.179564855E-1,3.596056630E-1,5.133446038E-1,8.130915299E-1
1.339772500E-1,-4.178484625E-1,3.432942702E-1,2.898874104E-2,5.415612991E-1
1.439062500E-1,-5.726708192E-1,2.196961546E-1,-3.266383302E-1,6.949178846E-1
1.538352500E-1,-3.352407173E-1,2.373495565E-1,1.882177788E-1,4.518263857E-1
1.637642500E-1,-4.363477006E-1,1.739845047E-1,2.018868148E-1,5.113005082E-1
1.736942500E-1,-5.979668243E-1,2.390561395E-1,-3.105415303E-1,7.149462937E-1
1.836232500E-1,-6.701074322E-1,2.123344370E-1,-8.265097797E-2,7.077860326E-1
1.935522500E-1,-5.686415029E-1,1.442186870E-1,6.661598307E-1,8.876492035E-1
2.034815000E-1,-6.501032303E-1,2.488483253E-1,-4.459285462E-1,8.266873456E-1
2.134105000E-1,-7.308822222E-1,1.402657134E-1,-1.780483013E-1,7.652218572E-1
2.233405000E-1,-3.925041448E-1,2.341846779E-1,4.023925173E-1,6.089513158E-1
2.332695000E-1,-4.543468191E-1,4.180576101E-1,-1.374154150E-2,6.175694514E-1
2.431985000E-1,-5.381333264E-1,4.624677246E-1,1.837721407E-2,7.097898247E-1
2.531275000E-1,-4.980559256E-1,4.983520505E-1,1.366365659E-1,7.176935435E-1
2.630565000E-1,-5.380106445E-1,2.467069653E-1,-2.080380857E-2,5.922436819E-1
2.729865000E-1,-4.163112660E-1,-1.177916477E-1,-9.204441297E-1,1.017058178E0
2.829155000E-1,-3.350801016E-1,-1.602134896E-1,-3.300940347E-1,4.968994954E-1
2.928445000E-1,-2.764238309E-1,9.606642757E-2,5.790912813E-1,6.488340349E-1
3.027735000E-1,-2.273256016E-1,2.705015516E-1,-1.194697255E-1,3.729893214E-1
3.127025000E-1,-5.484903167E-1,1.773956424E-1,3.913395256E-1,6.967477777E-1
3.226315000E-1,-4.373821096E-1,2.010622843E-1,8.547149938E-1,9.809520236E-1
3.325615000E-1,-5.172988930E-1,4.801269371E-2,3.722623998E-1,6.391264802E-1
3.424905000E-1,-6.602794321E-1,9.383790750E-2,1.671315497E-1,6.875372253E-1
3.524195000E-1,-4.029830861E-1,9.271162413E-3,-3.176768875E-1,5.132250257E-1
3.623485000E-1,-5.642075958E-1,6.177130178E-2,2.916357279E-2,5.683277390E-1
3.722775000E-1,-3.749749962E-1,6.525799647E-2,-1.602891380E-1,4.129860308E-1
3.822075000E-1,-2.956874829E-1,-1.026355551E-1,1.507441431E-1,3.474031396E-1
3.921365000E-1,-3.504197968E-1,-3.837542251E-2,7.392014945E-1,8.189539404E-1
4.020655000E-1,-4.069534552E-1,9.168989629E-2,-6.652377248E-3,4.172078689E-1
4.119945000E-1,-5.624009158E-1,-5.524442039E-2,5.591528606E-1,7.949834323E-1
4.219235000E-1,-4.113823190E-1,1.122506434E-1,6.357186413E-1,7.654892620E-1
4.318535000E-1,-5.650997713E-1,3.052484114E-1,5.016799933E-1,8.149829200E-1
4.417825000E-1,-4.947927772E-1,2.413933081E-1,5.127557892E-1,7.523357767E-1
4.517115000E-1,-2.344504704E-1,-8.614552986E-2,1.144750339E-1,2.747591833E-1
4.616405000E-1,-3.385976404E-1,-3.515254688E-1,-1.006703424E-1,4.983503136E-1
4.715695000E-1,-1.992846577E-1,-3.090808227E-1,-3.056269455E-1,4.781769124E-1
4.814985000E-1,-2.186238849E-1,-2.129648400E-1,-1.037489015E-1,3.223573494E-1
4.914285000E-1,-2.743364115E-1,-1.157263746E-1,5.176393837E-1,5.971629526E-1
5.013575000E-1,-3.307593016E-1,-6.278888175E-2,8.465581280E-1,9.110460051E-1
5.112865000E-1,-3.259439368E-1,6.092323624E-2,5.227293849E-1,6.190291597E-1
5.212155000E-1,-3.675051782E-1,9.348263433E-2,1.391114584E0,1.441873380E0
5.311445000E-1,-1.960830148E-1,1.703941133E-1,5.720769614E-1,6.282951156E-1
5.410745000E-1,-3.471074588E-1,2.056326143E-1,-4.786799705E-1,6.260214646E-1
5.510035000E-1,-2.163440555E-1,9.378093369E-3,2.899482214E-1,3.618876485E-1
5.609325000E-1,-8.391174730E-2,1.398796693E-1,-1.344520462E-1,2.113879276E-1
5.708615000E-1,-3.070054997E-1,3.657067940E-3,-4.514085567E-1,5.459262185E-1
5.807905000E-1,-2.114601321E-1,-2.063603003E-2,2.188858402E-1,3.050446594E-1
5.907205000E-1,-2.767755775E-1,1.961483026E-1,5.022354788E-1,6.060687692E-1
6.006495000E-1,-3.160303481E-1,5.465178316E-1,2.408503211E-1,6.756965283E-1
6.105785000E-1,-3.507832378E-1,5.939033384E-1,9.447580218E-2,6.962009282E-1
6.205075000E-1,-2.577101827E-1,4.458359775E-1,7.486190200E-2,5.203734826E-1
6.304365000E-1,-9.295326032E-2,4.473942239E-1,1.145153797E-1,4.710792633E-1
6.403665000E-1,-2.317758809E-1,2.650898256E-1,5.077137351E-2,3.557673495E-1
6.502955000E-1,-1.591348976E-1,1.401357042E-1,-2.002934486E-1,2.916837273E-1
6.602245000E-1,-3.144193671E-1,2.044212356E-1,-3.136054713E-1,4.888721424E-1
6.701535000E-1,-3.472362803E-1,3.197228283E-1,-5.095474219E-1,6.945749034E-1
6.800825000E-1,-4.132992921E-1,4.440330251E-1,-5.529735231E-1,8.208296714E-1
6.900125000E-1,-3.730132188E-1,5.116398846E-1,-2.094922882E-1,6.669342185E-1
6.999415000E-1,-3.373684460E-1,5.295853914E-1,-1.305145311E-1,6.413362597E-1
7.098705000E-1,-2.573693996E-1,6.055239486E-1,-4.544695741E-1,7.996504573E-1
7.197995000E-1,-3.079459147E-1,4.135111441E-1,2.963234407E-1,5.946677510E-1
7.297285000E-1,-1.870527942E-1,2.724602227E-1,-1.945175689E-1,3.834845569E-1
7.396585000E-1,-3.389163502E-1,2.271914628E-1,-3.921715844E-1,5.659318023E-1
7.495875000E-1,-2.400144250E-1,1.164783265E-1,-5.652982843E-1,6.250890137E-1
7.595165000E-1,-3.360346230E-1,1.058153258E-1,-4.713709509E-1,5.884783126E-1
7.694455000E-1,-3.973283169E-1,2.527020790E-1,-6.123929286E-1,7.724980461E-1
7.793745000E-1,-4.259603413E-1,2.465312382E-1,-6.380341387E-1,8.057961441E-1
7.893045000E-1,-3.706215614E-1,2.906141462E-1,3.032091218E-1,5.601363185E-1
7.992335000E-1,-2.267186606E-1,2.264381222E-1,-5.452177763E-1,6.324065131E-1
8.091625000E-1,-4.178519342E-1,-2.125091957E-2,-6.852971828E-1,8.029222062E-1
8.190915000E-1,-1.142586504E-1,-8.101759482E-2,1.310606611E-1,1.918222790E-1
8.290205000E-1,-2.478174247E-1,-1.880546232E-1,-5.422865671E-1,6.251821640E-1
8.389505000E-1,-5.649130990E-1,-1.795130654E-1,3.365072608E-3,5.927588664E-1
8.488795000E-1,-3.138276654E-1,-1.438779953E-1,-1.003920150E-1,3.595375332E-1
8.588085000E-1,-7.448839648E-1,-2.176732373E-1,-1.335597610E-1,7.874464865E-1
8.687375000E-1,-4.933042588E-1,-2.056384798E-1,1.986357629E-2,5.348185092E-1
8.786665000E-1,-4.943590235E-1,-2.660932627E-1,-1.893129623E-1,5.924827982E-1
8.885965000E-1,-5.179864159E-1,-3.475718008E-1,-4.329278469E-2,6.252922109E-1
8.985255000E-1,-2.357904695E-1,-4.279459826E-1,5.876808411E-1,7.642667601E-1
9.084545000E-1,-3.558216739E-1,-4.305206944E-1,-6.875682414E-2,5.627473970E-1
9.183835000E-1,-3.391937275E-1,-4.638838837E-1,3.680278462E-1,6.824112674E-1
9.283125000E-1,-2.322897415E-1,-4.657536040E-1,7.479582846E-1,9.112225519E-1
9.382415000E-1,-3.451295285E-1,-3.930642715E-1,1.229388785E-1,5.373340495E-1
9.481715000E-1,-3.856884109E-1,-4.194190246E-1,1.654598308E-1,5.933336533E-1
9.581005000E-1,-2.432186261E-1,-5.088934109E-1,3.585267055E-1,6.683331522E-1
9.680295000E-1,-4.251278074E-1,-5.726904074E-1,3.122284520E-1,7.785849739E-1
9.779585000E-1,-2.579082936E-1,-5.394466110E-1,3.000124490E-1,6.689744417E-1
9.878875000E-1,-2.628976862E-1,-4.615497483E-1,1.008937646E0,1.140218635E0
9.978175000E-1,-2.831627104E-1,-5.302283659E-1,8.303607559E-1,1.025096203E0
1.007746500E0,-1.435666128E-1,-5.781068294E-1,9.398580551E-2,6.030358283E-1
1.017675500E0,-1.673784849E-1,-5.977189024E-1,7.947365946E-1,1.008409489E0
1.027604500E0,-7.878509134E-2,-6.255737221E-1,5.713232553E-1,8.508582928E-1
1.037533500E0,-1.056472366E-1,-5.869045501E-1,3.912196577E-1,7.132118269E-1
1.047463500E0,-4.862833243E-2,-5.945446683E-1,8.203000367E-1,1.014268321E0
1.057392500E0,-1.404248673E-1,-6.134047893E-1,8.215788227E-1,1.034879868E0
1.067321500E0,-1.043649422E-1,-6.020926562E-1,4.449187320E-1,7.558837781E-1
1.077250500E0,-6.913784333E-2,-7.040429907E-1,5.137077159E-1,8.742723783E-1
1.087179500E0,-8.574426468E-2,-6.790201237E-1,1.721174705E-1,7.057229137E-1
1.097109500E0,-1.613513212E-1,-6.445208205E-1,8.700610113E-1,1.094736270E0
1.107038500E0,-9.101713758E-2,-4.014330989E-1,4.801020133E-1,6.324006605E-1
1.116967500E0,-2.003679275E-1,-2.948729840E-1,5.475917459E-1,6.534172505E-1
1.126896500E0,-2.586792490E-1,-3.424157991E-1,8.765584373E-1,9.759704030E-1
1.136825500E0,-1.186509691E-2,-3.945205936E-1,-3.909682274E-2,3.966306101E-1
1.146755500E0,-2.771566332E-1,-3.895015264E-1,6.292229694E-1,7.902207183E-1
1.156684500E0,-5.085937411E-2,-4.049877309E-1,1.301040566E-1,4.284026186E-1
1.166613500E0,-3.248023776E-1,-3.597200491E-1,-1.629092753E-2,4.849334929E-1
1.176542500E0,-2.900675046E-1,-2.992270035E-1,3.135715574E-1,5.215391438E-1
1.186471500E0,-2.737735439E-1,-8.206377134E-2,2.487352914E-1,3.788873989E-1
1.196400500E0,-3.085665235E-1,-8.863677263E-2,4.353304678E-1,5.409088584E-1
1.206329750E0,-2.802214878E-1,1.042015856E-2,-5.720272601E-2,2.861901707E-1
1.216258750E0,-2.887298810E-1,-8.130370639E-2,-1.407249391E-1,3.313287572E-1
1.226187750E0,-1.935687120E-1,-1.172538683E-1,2.431272268E-3,2.263254890E-1
1.236116750E0,-3.689336896E-1,-9.708466535E-2,-2.650706577E-1,4.645427355E-1
1.246045750E0,-2.883855531E-1,3.011973873E-3,-1.728612363E-2,2.889188628E-1
1.255975750E0,-2.983900660E-1,1.121174091E-1,2.166679913E-1,3.854243938E-1
1.265904750E0,-2.609081345E-1,1.405524006E-1,-6.845195031E-1,7.459188844E-1
1.275833750E0,-3.241945230E-1,1.190566380E-1,-5.048111773E-1,6.116460549E-1
1.285762750E0,-1.776299696E-1,3.067167203E-1,-6.069567722E-1,7.028684628E-1
1.295691750E0,-2.366152924E-1,1.422113561E-1,-4.685426527E-1,5.438226584E-1
1.305620750E0,-2.539143164E-1,2.342627017E-1,-5.949565315E-1,6.879860231E-1
1.315550750E0,-2.657025225E-1,1.403649333E-1,-8.676659918E-1,9.182289574E-1
1.325479750E0,-2.044355065E-1,2.680695667E-1,5.864412314E-1,6.764380879E-1
1.335408750E0,-3.636295341E-1,3.663757885E-1,-5.303605860E-1,7.400945937E-1
1.345337750E0,-3.433743405E-1,2.648559553E-1,-2.061002600E0,2.106130654E0
1.355266750E0,-3.492605132E-1,4.307590050E-1,-6.483176368E-1,8.531424176E-1
1.365196750E0,-2.202876005E-1,4.938952296E-1,9.491317391E-2,5.490606846E-1
1.375125750E0,-2.401422598E-1,4.233308484E-1,-2.310758815E0,2.361457942E0
1.385054750E0,-6.750742764E-1,2.433235288E-1,1.016134983E-1,7.247461082E-1
1.394983750E0,2.785253202E-1,4.430383406E-1,1.341883367E-1,5.402460874E-1
1.404912750E0,-4.913722292E-1,2.454008984E-1,-2.044573678E0,2.117061594E0
1.414841750E0,-3.407981669E-1,2.716444630E-1,4.426225305E-1,6.211672958E-1
1.424771750E0,1.106220111E-1,4.699123995E-1,-7.762418514E-1,9.141150390E-1
1.434700750E0,-6.393200876E-1,1.180505697E-1,-8.101843536E-2,6.551565449E-1
1.444629750E0,-9.930441460E-2,4.453623895E-1,-8.674098837E-1,9.801065917E-1
1.454558750E0,-4.563775206E-1,3.563820930E-1,-2.128386497E-3,5.790450479E-1
1.464487750E0,-3.339031302E-1,5.266289661E-1,-3.149748892E-1,6.985975588E-1
1.474416750E0,-2.712643392E-1,5.486140584E-1,-1.163479555E0,1.314627857E0
1.484346750E0,-1.758388395E-1,4.194885334E-1,-1.181940969E0,1.266441622E0
1.494275750E0,-2.039000843E-2,3.353000300E-1,1.061406466E0,1.113294906E0
1.504204750E0,-3.536871113E-3,3.149359321E-1,-1.153272656E0,1.195506156E0
1.514133750E0,-2.923785801E-1,1.387089105E-1,-3.439232844E-1,4.722378866E-1
1.524062750E0,1.439432649E-1,1.280540776E-1,1.636251499E0,1.647554697E0
1.533991750E0,-1.541113171E-1,3.876670356E-1,-8.224003565E-1,9.221596255E-1
1.543921750E0,-5.272604654E-1,1.594031934E-1,-1.084325212E-1,5.614005594E-1
1.553850750E0,9.626402691E-2,5.975171003E-1,-7.646462381E-1,9.751806589E-1
1.563779750E0,-3.572522683E-1,3.983592542E-1,-9.308626986E-1,1.073696718E0
1.573708750E0,-2.182082575E-1,1.771217552E-1,-4.203253430E-1,5.056286718E-1
1.583637750E0,-4.724450845E-1,-3.818805579E-2,-3.946624982E-1,6.167829221E-1
1.593566750E0,-4.686294473E-1,-1.865690833E-1,4.949597883E-1,7.066871824E-1
1.603496750E0,-3.402852199E-1,2.074460551E-2,1.029449678E0,1.084431192E0
1.613425750E0,-5.214884961E-1,-2.571098563E-1,6.449297601E-1,8.683260478E-1
1.623354750E0,-1.961167276E-1,-3.762086125E-1,7.478372473E-1,8.597995344E-1
1.633283750E0,-1.776987658E-1,-2.740169708E-3,-3.920675039E-2,1.819932118E-1
1.643212750E0,-2.897974912E-1,-1.459133380E-1,-3.161238670E-2,3.259948329E-1
1.653141750E0,-1.527018823E-1,2.041697323E-1,-6.687022001E-1,7.156575835E-1
1.663070750E0,-3.713429617E-1,1.800381819E-1,4.925635993E-1,6.425949280E-1
1.673000750E0,-6.831060849E-2,2.480692204E-2,4.758054793E-1,4.813237754E-1
1.682929750E0,-3.539984024E-1,-5.309242576E-2,-4.921583873E-1,6.085668022E-1
1.692858750E0,-1.347543107E-1,-2.460311003E-2,4.927167964E-1,5.114038313E-1
1.702787750E0,-1.023238254E-1,-3.267247594E-1,1.973739338E-1,3.951907177E-1
1.712716750E0,-3.302081285E-1,-9.554372303E-2,2.619418126E-1,4.321799675E-1
1.722645750E0,-3.357691229E-1,-1.561222659E-1,1.690925304E0,1.730994931E0
1.732575750E0,-1.570136922E-1,1.041547348E-1,3.608082891E-1,4.070431547E-1
1.742504750E0,-4.554780726E-1,3.414455633E-1,-7.984793973E-1,9.806195466E-1
1.752433750E0,-3.117891799E-1,3.611438461E-1,8.942018259E-1,1.013525666E0
1.762362750E0,-1.215234138E-3,1.105766952E-1,-9.346639735E-1,9.411829926E-1
1.772291750E0,-3.813377901E-1,-4.066167286E-1,-1.045914853E-1,5.671816755E-1
1.782220750E0,1.261516677E-2,-2.242517569E-1,1.363366038E-1,2.627463842E-1
1.792149750E0,-2.862785637E-1,-9.287615016E-2,1.542226517E-1,3.381804572E-1
1.802079750E0,-2.967459385E-1,-2.316915714E-1,1.606840589E0,1.650356269E0
1.812008750E0,-3.825122399E-2,-2.672543004E-2,3.718542641E-1,3.747705945E-1
1.821937750E0,-3.482762076E-1,-5.615417406E-2,1.655440307E-1,3.896850448E-1
1.831866750E0,-8.538672572E-2,-4.892939094E-2,7.143718779E-1,7.211186852E-1
1.841795750E0,-2.120898042E-1,-5.977769360E-2,7.239648199E-1,7.567565779E-1
1.851724750E0,-2.918734720E-1,-3.824842829E-2,-5.919604182E-1,6.611128517E-1
1.861653750E0,-1.991774161E-1,2.016580425E-2,4.488772970E-1,4.914968266E-1
1.871583750E0,-1.860005877E-1,8.445630580E-2,6.408431411E-2,2.140931702E-1
1.881512750E0,-3.063243904E-1,-1.545893452E-1,-2.112183863E-1,4.029214620E-1
1.891441750E0,-3.473682811E-2,-4.673778143E-2,5.621209073E-1,5.651291727E-1
1.901370750E0,-1.977653866E-1,5.731850088E-2,3.677138507E-1,4.214380556E-1
1.911299750E0,-1.988410733E-1,1.483590639E-1,-5.674488902E-2,2.544959070E-1
1.921228750E0,-2.131921688E-1,1.131004266E-1,3.646545875E-1,4.372820320E-1
1.931157750E0,-9.303301999E-2,2.910542588E-1,3.710157734E-1,4.806458452E-1
1.941087750E0,-1.517809276E-1,2.266843082E-1,-5.497300726E-1,6.136989313E-1
1.951016750E0,-1.284566767E-1,2.952491610E-1,9.573798215E-1,1.010073912E0
1.960945750E0,1.040749934E-1,1.908561156E-1,-9.103085661E-1,9.359056291E-1
1.970874750E0,-2.735125571E-1,1.589298796E-2,-6.751405692E-1,7.286127189E-1
1.980803750E0,-8.564343676E-5,1.322212968E-1,5.048170245E-1,5.218454818E-1
1.990732750E0,-6.457431078E-2,2.461113533E-1,1.894339997E-1,3.172158257E-1
2.000661750E0,-2.228483703E-1,1.674921037E-1,-8.844439924E-2,2.924677977E-1
2.010591750E0,-3.932555485E-1,2.562806115E-1,-1.322061306E-1,4.876557590E-1
2.020520750E0,-9.147806263E-2,2.981131272E-1,9.477237296E-1,9.977073420E-1
2.030449750E0,-6.494111393E-2,3.467496823E-1,-1.525199425E-1,3.843371219E-1
2.040378750E0,-3.546927227E-1,2.569835930E-1,-4.279992288E-1,6.123976115E-1
2.050307750E0,-1.834221849E-1,3.537970024E-1,6.082010597E-1,7.271344758E-1
2.060236750E0,-3.885934538E-1,3.576368689E-1,2.948224604E-2,5.289406443E-1
2.070165750E0,-4.162117537E-1,1.633604976E-1,-2.725433993E-1,5.236399341E-1
2.080094750E0,-3.075994306E-1,2.142133667E-1,4.204142207E-1,5.632520689E-1
2.090024750E0,-4.421318760E-1,2.583094492E-1,-2.460151666E-1,5.680913919E-1
2.099953750E0,-2.233814902E-1,2.008305153E-1,1.226003247E-1,3.244426385E-1
2.109882750E0,-7.663565487E-2,2.617319341E-1,-8.565001488E-3,2.728552514E-1
2.119811750E0,-3.933385424E-1,1.431218590E-1,1.811736381E-1,4.560953438E-1
2.129740750E0,-2.268061130E-1,1.630943397E-1,4.265877110E-1,5.099194561E-1
2.139669750E0,-3.812516899E-1,3.481969412E-2,6.104370350E-1,7.205543947E-1
2.149598750E0,-3.441163522E-1,1.560599565E-1,4.032935733E-1,5.526449856E-1
2.159527750E0,-2.955341945E-1,2.780665331E-2,4.766346145E-1,5.615106640E-1
2.169457750E0,-3.971549470E-1,-7.885876626E-2,-2.675335050E-2,4.057912009E-1
2.179386750E0,-1.943586709E-1,-3.248490091E-2,-5.482583284E-2,2.045395651E-1
2.189315750E0,-9.354872614E-2,-2.575599823E-2,8.458576316E-1,8.514046444E-1
2.199244750E0,-2.498742011E-1,-5.535409223E-2,-8.019163907E-2,2.682012134E-1
2.209178250E0,-1.566419555E-1,-4.397968635E-2,-3.572987902E-1,3.925981922E-1
2.219107250E0,1.833136825E-2,-5.807633657E-2,1.284375417E0,1.285818460E0
2.229036250E0,-1.322621725E-1,-5.873952046E-2,-1.837282866E-1,2.338796632E-1
2.238965250E0,-1.530591472E-1,-4.769464172E-3,1.496512985E-1,2.141152995E-1
2.248895250E0,1.941948026E-2,-8.351998385E-2,9.532318068E-1,9.570807601E-1
2.258824250E0,-1.274320983E-1,-1.096792938E-1,-6.523036838E-2,1.803426963E-1
2.268753250E0,-1.404972997E-1,-1.932339589E-1,1.057328618E-1,2.612628794E-1
2.278682250E0,-5.199654792E-2,-1.634381559E-1,3.390525538E-1,3.799635588E-1
2.288611250E0,-8.589932553E-2,-2.765958487E-1,-1.524591315E-1,3.273037495E-1
2.298540250E0,-3.397224985E-2,-3.152030037E-1,6.432299745E-1,7.171135526E-1
2.308469250E0,5.707266200E-3,-2.017464086E-1,-3.319376618E-1,3.884801122E-1
2.318398250E0,-2.011500108E-1,-1.705134696E-1,3.961658174E-1,4.759028525E-1
2.328328250E0,1.002966505E-1,-8.310501426E-2,3.132236481E-1,3.392269376E-1
2.338257250E0,-2.298121483E-1,-1.213894760E-1,-9.791630387E-2,2.777348213E-1
2.348186250E0,-1.111008250E-1,-2.769559275E-1,3.951390463E-1,4.951594138E-1
2.358115250E0,-2.384154674E-2,-2.850056797E-1,1.137271750E-1,3.077832470E-1
2.368044250E0,-3.221418579E-1,-4.186516872E-1,1.275037998E-1,5.434168113E-1
2.377973250E0,-3.628597481E-2,-3.858810036E-1,6.686875820E-3,3.876409875E-1
2.387902250E0,-1.570729501E-1,-2.859804836E-1,1.673338634E-1,3.666842927E-1
2.397831250E0,-1.622620068E-1,-3.684097425E-1,3.958062136E-1,5.645504902E-1
2.407760250E0,-1.852957790E-1,-1.450510930E-1,-6.625310487E-1,7.030801773E-1
2.417690250E0,-2.118630418E-1,-1.760478775E-1,2.348218417E-1,3.619669888E-1
2.427619250E0,-2.245661361E-1,-1.631054859E-1,4.443369341E-1,5.238975663E-1
2.437548250E0,-1.968016010E-1,-2.855591187E-1,-4.413291264E-1,5.612898344E-1
2.447477250E0,-3.039053425E-1,-2.728172866E-1,-9.063184261E-3,4.084970873E-1
2.457406250E0,-1.386104397E-1,-3.419912547E-1,1.431620586E-1,3.958108732E-1
2.467335250E0,-1.886339544E-1,-3.590233534E-1,-1.780728596E-1,4.429339458E-1
2.477264250E0,-2.002164298E-1,-4.382870393E-1,-1.441104770E-1,5.029413258E-1
2.487193250E0,-7.896335833E-2,-2.179591296E-1,-2.077059639E-1,3.112606007E-1
2.497122250E0,-1.856935906E-1,-3.193559155E-1,2.429792923E-1,4.421642758E-1
2.507052250E0,-2.378179550E-2,-2.071296659E-1,-3.954401779E-1,4.470360238E-1
2.516981250E0,-2.147612508E-1,-2.249549577E-1,-3.015385723E-1,4.331889177E-1
2.526910250E0,-7.397964852E-2,-3.689885437E-1,3.882019097E-1,5.406720415E-1
2.536839250E0,2.609749390E-2,-3.558788304E-1,-1.153334051E-1,3.750101538E-1
2.546768250E0,-1.590972196E-1,-3.853382358E-1,-3.200590432E-1,5.255808904E-1
2.556697250E0,1.196755658E-1,-3.698356591E-1,-3.270786256E-1,5.080168138E-1
2.566626250E0,-6.805113830E-2,-3.192933868E-1,-7.616524637E-2,3.352318139E-1
2.576555250E0,-3.290615626E-2,-3.686419500E-1,-4.699407220E-1,5.981839054E-1
2.586484250E0,4.970559055E-2,-1.774637077E-1,9.922549546E-2,2.093076975E-1
2.596414250E0,-8.629704583E-2,-2.519861423E-1,-6.062159300E-2,2.731651031E-1
2.606343250E0,3.429165401E-2,-3.782514835E-1,-1.122080684E-2,3.799684313E-1
2.616272250E0,8.771621989E-2,-3.652024351E-1,-4.092770290E-1,5.554949508E-1
2.626201250E0,-3.294438243E-2,-3.539080264E-1,-1.176541650E-1,3.744044952E-1
2.636130250E0,-2.189760335E-2,-2.372830992E-1,8.664638042E-2,2.535554564E-1
2.646059250E0,-2.887090137E-2,-3.017046150E-1,-2.060266435E-2,3.037822796E-1
2.655988250E0,8.330400232E-3,-3.820252765E-1,1.349718636E-1,4.052531449E-1
2.665917250E0,-1.713358440E-2,-4.163037743E-1,-3.602165508E-1,5.507797706E-1
2.675846250E0,-3.135847136E-2,-4.885132331E-1,-3.396343517E-1,5.958020019E-1
2.685775250E0,-4.044257769E-2,-3.306445500E-1,-2.267959535E-1,4.029861351E-1
2.695705250E0,-9.748858005E-2,-2.224138126E-1,1.047446823E-1,2.644680996E-1
2.705634250E0,-1.076161220E-1,-2.547053168E-1,-4.277004361E-2,2.797951121E-1
2.715563250E0,-1.703081775E-1,-3.866512281E-1,-1.109129101E-1,4.368131421E-1
2.725492250E0,-2.468702854E-1,-4.913472323E-1,3.063596016E-1,6.294626645E-1
2.735421250E0,-7.433594495E-2,-4.712874088E-1,1.245456934E-2,4.772764092E-1
2.745350250E0,-2.225016670E-1,-4.024257734E-1,-2.520875001E-1,5.244059521E-1
2.755279250E0,-8.521202188E-2,-4.840966849E-1,-3.406821728E-2,4.927183094E-1
2.765208250E0,5.790680386E-3,-3.230117409E-1,-1.197433752E-1,3.445411334E-1
2.775137250E0,-1.089569799E-1,-3.511262501E-1,-1.732360429E-1,4.064135745E-1
2.785066250E0,-6.802979596E-2,-2.564997542E-1,-1.137195736E-1,2.887080159E-1
2.794996250E0,-1.130884032E-1,-2.505766892E-1,3.148626226E-1,4.179905923E-1
2.804925250E0,-1.649802860E-2,-3.689065731E-1,-2.332898712E-1,4.367933248E-1
2.814854250E0,-1.457255510E-1,-4.619504653E-1,-7.347143412E-2,4.899308321E-1
2.824783250E0,-1.749028282E-2,-3.242873110E-1,2.614126396E-1,4.168989544E-1
2.834712250E0,-1.863767647E-1,-3.442591339E-1,2.604443407E-1,4.701934754E-1
2.844641250E0,-1.836260334E-1,-3.412090069E-1,-1.618216932E-2,3.878195059E-1
2.854570250E0,-1.234490298E-1,-4.095062399E-1,2.319379950E-1,4.865493366E-1
2.864499250E0,-2.181560528E-1,-3.185935117E-1,1.992725247E-1,4.345151645E-1
2.874428250E0,-1.104258370E-1,-3.311979159E-1,-1.940141237E-1,3.994088196E-1
2.884357250E0,-1.082450631E-1,-2.039036840E-1,-4.336552405E-1,4.912744382E-1
2.894286250E0,-4.771165347E-2,-2.983034175E-1,3.313435847E-1,4.483858850E-1
2.904216250E0,-5.181892047E-2,-2.137602075E-1,2.256270951E-1,3.150971483E-1
2.914145250E0,-9.618812274E-2,-2.806529210E-1,-4.575551498E-1,5.453209441E-1
2.924074250E0,-1.521755963E-1,-2.915130460E-1,7.746578407E-1,8.415652312E-1
2.934003250E0,1.448739772E-1,-2.235199961E-1,3.360301280E-1,4.287958778E-1
2.943932250E0,-2.346104283E-1,-1.281071228E-1,-2.214235318E-1,3.471049818E-1
2.953861250E0,-1.911394497E-2,-2.076145646E-1,-8.266208768E-2,2.242814550E-1
2.963790250E0,2.861945283E-2,-6.941952380E-2,1.538262105E-1,1.711743158E-1
2.973719250E0,-9.139682287E-2,-9.503956513E-2,-1.937422282E-1,2.343543239E-1
2.983648250E0,2.590729494E-2,-5.270935091E-2,-2.880332583E-1,2.939602380E-1
2.993577250E0,-9.658072673E-2,-5.858141723E-2,3.277814609E-1,3.466991568E-1
3.003506250E0,-7.387737706E-3,-5.102234697E-3,2.627656853E-1,2.629190310E-1
3.013436250E0,-1.889906528E-1,-7.795451263E-2,-6.884424001E-1,7.181554923E-1
3.023365250E0,-7.158535989E-2,-1.323428641E-1,2.840776169E-1,3.214641347E-1
3.033294250E0,3.725809269E-2,-2.373079682E-2,3.369130576E-1,3.397965929E-1
3.043223250E0,-7.543523977E-2,1.465667461E-1,-3.075927794E-1,3.489779426E-1
3.053152250E0,-1.114052457E-1,-2.201915234E-3,5.990671241E-1,6.093417731E-1
3.063081250E0,7.538632415E-3,1.501229313E-1,8.258022666E-3,1.505387671E-1
3.073010250E0,-1.577497287E-1,1.238201636E-1,-3.584553695E-1,4.107391651E-1
3.082939250E0,-7.030527648E-2,1.035249714E-1,-1.458927083E-1,1.922106499E-1
3.092868250E0,-4.968063025E-2,1.890669407E-1,-5.091445488E-1,5.453830256E-1
3.102797250E0,-1.060050496E-1,2.024195875E-1,3.740159798E-1,4.382906719E-1
3.112726250E0,-8.966829456E-2,2.844387921E-1,-2.004583400E-1,3.593457605E-1
3.122655250E0,-3.464361984E-1,2.329709787E-1,-2.497053444E-2,4.182308502E-1
3.132585250E0,-2.507153230E-1,2.916305019E-1,6.020731777E-1,7.144218881E-1
3.142514250E0,-2.612015186E-1,3.388416886E-1,-1.372516930E-2,4.280517533E-1
3.152443250E0,-3.634652638E-1,2.916855206E-1,-2.620277667E-1,5.346456691E-1
3.162372250E0,-1.875004533E-1,2.807493087E-1,1.791119099E-2,3.380789924E-1
3.172301250E0,-1.837807654E-1,3.669059117E-1,6.703715801E-2,4.157995891E-1
3.182230250E0,-1.284311134E-1,2.348589898E-1,-1.161514306E-1,2.917952207E-1
3.192159250E0,-9.780326989E-2,2.611845434E-1,1.837037283E-1,3.339609335E-1
3.202088250E0,3.588143885E-3,2.458814116E-1,2.022399867E-1,3.183890003E-1
3.212017250E0,-1.101891710E-1,2.763444367E-1,-3.469708532E-1,4.570521568E-1
3.221946250E0,1.693883557E-2,1.325058187E-1,-6.151896518E-1,6.295260311E-1
3.231875250E0,-6.104648458E-2,2.705334920E-2,1.538045758E-1,1.676735057E-1
3.241804250E0,-3.326912948E-1,2.530606778E-1,7.315691239E-1,8.425654795E-1
3.251733250E0,-1.916887591E-1,2.868378864E-1,-7.019114614E-1,7.821126856E-1
3.261663250E0,-3.804702095E-1,1.153740798E-1,1.329527031E0,1.387699854E0
3.271592250E0,-1.586724925E-1,9.295572711E-2,1.027890226E0,1.044210727E0
3.281521250E0,-8.180933523E-2,1.315332440E-1,-5.494950145E-1,5.709102667E-1
3.291450250E0,-1.710727923E-1,-1.003576078E-1,2.018400371E-1,2.829787100E-1
3.301379250E0,1.977527785E-1,-6.420615546E-2,4.973249871E-1,5.390368583E-1
3.311308250E0,-2.255046325E-2,5.376706654E-2,-3.761630774E-2,6.938593117E-2
3.321237250E0,-9.793047423E-2,-1.150655661E-1,7.319275582E-1,7.473609655E-1
3.331166250E0,7.846597955E-3,-1.225788911E-1,7.448019576E-1,7.548623117E-1
3.341095250E0,-1.162755560E-1,3.457111437E-2,3.195263618E-1,3.417780900E-1
3.351024250E0,-8.576661201E-2,-7.744883811E-2,1.047300643E-1,1.559571115E-1
3.360953250E0,-1.759008018E-1,-1.785250139E-1,6.967436922E-1,7.404485432E-1
3.370882250E0,-1.074465528E-1,-2.934693782E-2,6.073573065E-1,6.174859530E-1
3.380811250E0,-1.211612884E-1,-1.819846652E-1,1.210373640E-1,2.498970181E-1
3.390740250E0,-1.603257196E-1,-1.484664334E-1,5.889502716E-1,6.281791469E-1
3.400670250E0,3.093673180E-2,-9.437948758E-2,3.127120167E-1,3.281057367E-1
3.410599250E0,-8.872558636E-2,-2.564955333E-1,-4.513799053E-1,5.266934661E-1
3.420528250E0,-6.602822095E-2,-4.005125279E-2,1.939204513E0,1.940741603E0
3.430457250E0,1.480395683E-1,-2.958122844E-1,-6.913034427E-1,7.663687567E-1
3.440386250E0,-4.257248081E-1,-4.351347323E-1,-6.120304012E-1,8.632294362E-1
3.450315250E0,1.281651382E-1,-2.035664275E-1,2.191245820E0,2.204410088E0
3.460244250E0,2.378330481E-1,-2.116180435E-1,-2.349376166E-1,3.956544437E-1
3.470173250E0,-3.728497161E-1,-2.454482425E-1,-3.151485515E-1,5.464250727E-1
3.480102250E0,2.438731488E-1,-1.862653021E-1,1.021013900E0,1.066132384E0
3.490031250E0,1.051385928E-1,-5.543783898E-1,-4.609161294E-1,7.285830090E-1
3.499960250E0,-1.014708354E-1,-7.856839353E-1,1.175974470E-1,8.008899651E-1
3.509889250E0,3.254475082E-1,-3.451590934E-1,-2.017558372E-1,5.155155655E-1
3.519818250E0,-6.131185681E-2,-2.488147769E-1,-6.907701766E-1,7.367709101E-1
3.529747250E0,-8.631623201E-3,-3.294304488E-1,7.445253843E-1,8.141971342E-1
3.539677250E0,1.257031680E-1,-2.580833081E-1,-1.669765985E-1,3.320985770E-1
3.549606250E0,-7.803228973E-2,-2.771890670E-1,-5.120371664E-1,5.874562765E-1
3.559535250E0,-5.364535309E-2,-3.885927595E-1,3.746620971E-1,5.424516970E-1
3.569464250E0,3.685457085E-2,-4.135202073E-1,-3.497500348E-1,5.428464866E-1
3.579393250E0,-2.288082362E-1,-3.999493314E-1,-9.741157222E-1,1.077596454E0
3.589322250E0,-2.086011543E-2,-3.814658807E-1,-4.438007444E-1,5.855855730E-1
3.599251250E0,-2.640258334E-1,-2.740943550E-1,-1.242504090E-1,4.003442522E-1
3.609180250E0,-8.167765411E-2,-2.147757592E-1,-5.390735221E-1,5.860035223E-1
3.619109250E0,1.168807520E-1,-2.140198056E-1,-4.398538738E-1,5.029284419E-1
3.629038250E0,-4.068425956E-2,-3.312684479E-1,-1.884230161E-1,3.832717398E-1
3.638967250E0,1.578510683E-1,-2.353133550E-1,-6.444093579E-1,7.039550805E-1
3.648896250E0,1.177796883E-1,-2.054196112E-1,-3.291982412E-1,4.055129513E-1
3.658825250E0,-1.830772357E-2,-2.576616142E-1,-3.593464851E-1,4.425546029E-1
3.668754250E0,7.090003881E-2,-2.947210843E-1,-6.048617148E-1,6.765685679E-1
3.678683250E0,5.355012571E-2,-3.667339305E-1,-4.633152419E-1,5.933147606E-1
3.688613250E0,1.027464786E-1,-3.407707946E-1,-1.069106664E0,1.126796624E0
3.698542250E0,2.506209819E-2,-3.014315500E-1,-5.487869167E-1,6.266228276E-1
3.708471250E0,8.472329515E-2,-1.600281329E-1,-9.930969536E-2,2.065174463E-1
3.718400250E0,9.393150863E-2,-1.776492654E-1,-7.071838957E-1,7.351812376E-1
3.728329250E0,-1.514618614E-1,-3.865810615E-1,8.045944154E-2,4.229176448E-1
3.738258250E0,2.707206029E-3,-3.573755349E-1,-3.197988421E-1,4.795788791E-1
3.748187250E0,-1.218754253E-1,-1.113152808E-1,2.535177290E-2,1.669952796E-1
3.758116250E0,-1.888546137E-1,-7.127845416E-2,-7.902786773E-1,8.156513170E-1
3.768045250E0,-9.704837607E-2,-7.035634825E-2,4.437978208E-2,1.278200614E-1
3.777974250E0,-1.353423487E-1,-5.758455832E-2,1.554189920E-3,1.470916320E-1
3.787903250E0,-1.314578515E-1,-2.666499541E-1,-7.857675505E-1,8.401273761E-1
3.797832250E0,-8.192636177E-2,-2.720171865E-1,5.150303560E-1,5.881849591E-1
3.807761250E0,6.311192214E-2,-2.172695236E-1,1.642915571E-1,2.796084339E-1
3.817690250E0,-1.544233026E-1,-2.287511345E-1,-2.194822562E-1,3.526274219E-1
3.827619250E0,-3.664839255E-2,-2.858971791E-1,4.913777840E-1,5.696774774E-1
3.837548250E0,1.034425257E-1,-1.112548443E-1,1.331843698E-1,2.020298811E-1
3.847478250E0,-1.403473917E-1,-9.048119458E-2,6.900193942E-1,7.099373221E-1
3.857407250E0,1.596175487E-1,-1.123204628E-1,5.248519242E-2,2.021097317E-1
3.867336250E0,-1.184877130E-1,-1.783465824E-1,2.790876031E-3,2.141369435E-1
3.877265250E0,-6.076846775E-3,-2.173880028E-1,3.319581270E-1,3.968509417E-1
3.887194250E0,2.188930761E-2,-1.561039203E-1,2.952955002E-1,3.347342351E-1
3.897123250E0,-1.108383490E-1,-1.858726981E-1,2.944078928E-1,3.653899381E-1
3.907052250E0,1.323389355E-4,-2.555146994E-1,5.761220652E-1,6.302415514E-1
3.916981250E0,-3.642292757E-2,-1.625926668E-1,2.624288857E-1,3.108567596E-1
3.926910250E0,-1.400282982E-2,-1.457343767E-1,9.475395423E-1,9.587834855E-1
3.936839250E0,1.336788615E-2,-8.194777720E-2,1.955554497E-1,2.124525182E-1
3.946768250E0,-8.479104063E-2,-1.005685095E-1,6.124414605E-1,6.264088826E-1
3.956697250E0,2.088484732E-2,-4.806316249E-2,2.660845649E-1,2.711959442E-1
3.966626250E0,-1.194922830E-1,-1.405535426E-1,1.122454906E-1,2.159461835E-1
3.976555250E0,-1.003343103E-1,-7.578537835E-2,4.937997007E-1,5.095572017E-1
3.986484250E0,-1.262416692E-1,-1.089969420E-1,-8.352162838E-3,1.669941646E-1
3.996413250E0,-9.581918171E-2,-6.131136345E-2,6.862251359E-1,6.955899195E-1
4.006342250E0,-1.149646560E-1,-1.723338175E-1,7.499890226E-1,7.780741294E-1
4.016271250E0,-8.009753544E-2,-1.788917622E-1,-4.179589748E-1,4.616357681E-1
4.026200250E0,-1.358184217E-1,-2.602041663E-1,6.223893285E-1,6.881288601E-1
4.036130250E0,3.127406132E-2,-2.321479100E-1,4.404356718E-2,2.383496483E-1
4.046059250E0,-1.733869741E-1,-1.407739644E-1,8.568860650E-2,2.392130622E-1
4.055988250E0,2.285619040E-2,-3.748158423E-2,-1.046645755E-1,1.134986694E-1
4.065917250E0,-4.483803020E-2,-1.550265160E-1,2.279665661E-1,2.793070441E-1
4.075846250E0,-9.492203610E-2,-2.356037424E-1,-9.008746684E-2,2.695089387E-1
4.085775250E0,2.268424571E-2,-2.029839352E-1,-3.225177974E-1,3.817522529E-1
4.095704250E0,-1.364565813E-1,-2.472752599E-1,1.174600375E-1,3.058795729E-1
4.105633250E0,-8.296564040E-2,-2.386607946E-1,1.824261117E-1,3.116433195E-1
4.115562250E0,-1.384956333E-1,-2.183878949E-1,-1.853035265E-1,3.181378790E-1
4.125491250E0,-1.829556502E-1,-2.966656124E-1,1.076770610E-1,3.647980331E-1
4.135420250E0,-2.296330774E-1,-1.842714016E-1,1.566550934E-1,3.335087974E-1
4.145349250E0,-8.212716795E-2,-2.737116547E-1,-8.216267699E-1,8.699042997E-1
4.155278250E0,-1.721494109E-1,-2.310197446E-1,1.446425736E-1,3.223771334E-1
4.165207250E0,5.277075581E-3,-2.024842541E-1,-5.366931206E-1,5.736438149E-1
4.175136250E0,3.033924686E-2,-2.550146711E-1,-8.642927331E-1,9.016401060E-1
4.185065250E0,-6.827381671E-2,-1.930025371E-1,1.096113199E-1,2.322195832E-1
4.194994250E0,9.923291411E-2,-6.810919018E-2,-1.786587507E-1,2.154181567E-1
4.204918750E0,-1.554887018E-2,-2.139754398E-1,-4.437451959E-2,2.190807025E-1
4.214847750E0,9.063102948E-2,-2.394981524E-1,-6.439883584E-1,6.930327224E-1
4.224776750E0,7.354245038E-2,-2.407393519E-1,-6.139833713E-1,6.635808223E-1
4.234706750E0,7.533909875E-2,-1.780485937E-1,-3.434672016E-1,3.941408379E-1
4.244635750E0,2.949774116E-3,-1.768854363E-1,-5.795830321E-1,6.059815590E-1
4.254564750E0,-6.913090889E-2,-1.033933725E-1,1.934387577E-1,2.299735311E-1
4.264493750E0,-1.089957543E-5,-1.017957853E-1,-5.773803860E-1,5.862853334E-1
4.274422750E0,-1.389240789E-1,-1.599688567E-1,-7.511391699E-2,2.247933170E-1
4.284351750E0,1.063926744E-1,-6.782313343E-2,-6.040723407E-1,6.171083952E-1
4.294280750E0,-6.415430711E-2,-1.003205145E-1,-9.153190452E-1,9.230324671E-1
4.304209750E0,4.142080774E-2,-1.088285604E-1,-1.933966577E-2,1.180396609E-1
4.314138750E0,1.575599683E-1,-1.537963897E-2,4.945358652E-1,5.192565829E-1
4.324067750E0,-2.977651631E-2,-1.187645147E-1,-1.253082288E0,1.259049988E0
4.333996750E0,-1.666587292E-1,-8.817749212E-2,8.295626110E-1,8.507200055E-1
4.343925750E0,2.496679040E-1,-1.400579545E-1,-1.762993991E-1,3.362019795E-1
4.353854750E0,-2.696409877E-1,-2.017161675E-1,-6.375458962E-1,7.210134841E-1
4.363783750E0,3.668197749E-2,-1.293900385E-1,5.855167866E-2,1.466821346E-1
4.373712750E0,4.355486786E-2,-1.718970122E-1,-1.855040860E-1,2.566269184E-1
4.383641750E0,8.523906525E-3,-3.015604446E-1,-2.243576646E-3,3.016892314E-1
4.393570750E0,4.421879179E-2,-2.479736915E-1,-6.493765676E-1,6.965171784E-1
4.403499750E0,-1.587424946E-2,-1.414644657E-1,4.564190358E-1,4.781030465E-1
4.413428750E0,9.571567685E-2,-1.294346966E-2,6.771894336E-2,1.179613474E-1
4.423357750E0,-1.324570675E-1,1.389022524E-2,-2.182268590E-1,2.556575348E-1
4.433286750E0,1.412039905E-1,-6.688193271E-2,4.206551260E-1,4.487343255E-1
4.443215750E0,9.272954950E-2,-3.597210724E-2,-3.161794156E-1,3.314546495E-1
4.453144750E0,-6.557590228E-2,-2.678550653E-1,1.735219717E-1,3.258165275E-1
4.463074750E0,2.970445485E-1,-2.083368967E-1,7.867428660E-2,3.712537807E-1
4.473003750E0,2.527908470E-2,-1.830177403E-1,1.318775171E-1,2.269938433E-1
4.482932750E0,2.205227317E-1,-2.669646440E-1,2.683638096E-2,3.473047475E-1
4.492861750E0,2.031759432E-1,-1.902656747E-1,-4.013353407E-2,2.812333398E-1
4.502790750E0,1.693641080E-1,-5.520034701E-2,2.775392604E-1,3.297867803E-1
4.512719750E0,2.056956546E-1,-3.215526413E-2,2.281998700E-1,3.089010262E-1
4.522648750E0,6.004209738E-2,-6.579188380E-2,1.209479016E-1,1.502065922E-1
4.532577750E0,1.071855111E-1,-2.041322370E-1,6.454565942E-1,6.853998242E-1
4.542506750E0,1.302056520E-1,-2.947847276E-1,3.263845611E-1,4.586702837E-1
4.552435750E0,6.341972323E-2,-3.514655348E-1,2.341885883E-1,4.270765485E-1
4.562364750E0,-1.139476150E-4,-4.042451345E-1,1.615076977E-1,4.353146887E-1
4.572293750E0,7.778899988E-2,-3.292712583E-1,2.868480277E-1,4.435678991E-1
4.582222750E0,2.243311694E-2,-2.821959281E-1,2.292769271E-1,3.642879299E-1
4.592151750E0,-1.946678789E-2,-3.173149449E-1,3.556896365E-1,4.770564406E-1
4.602080750E0,4.625788948E-2,-1.329721890E-1,7.117903322E-1,7.255803694E-1
4.612009750E0,-3.734433912E-2,-4.485031849E-2,3.459914446E-2,6.784726619E-2
4.621938750E0,-5.816897839E-2,-8.385097280E-2,-1.261297041E-1,1.622446238E-1
4.631867750E0,6.788845779E-2,-1.429420936E-1,7.025113857E-1,7.201135548E-1
4.641796750E0,6.134620920E-2,-2.002130311E-1,-2.475629246E-1,3.242468455E-1
4.651725750E0,-1.607016590E-1,-3.125724875E-1,1.642634904E-1,3.879549941E-1
4.661654750E0,2.040910872E-1,-2.956946092E-1,9.587644422E-1,1.023873884E0
4.671583750E0,-1.575885466E-1,-1.453394703E-1,-8.861923099E-2,2.319721530E-1
4.681512750E0,-6.443595104E-2,-2.943018024E-1,-2.849494368E-1,4.146826789E-1
4.691441750E0,1.660917686E-1,-2.740118727E-1,1.005605317E0,1.055419839E0
4.701370750E0,-1.302349794E-1,-1.901871576E-1,-2.695589805E-1,3.546749903E-1
4.711299750E0,6.907988280E-2,-2.625305907E-1,2.237875611E-1,3.518170174E-1
4.721228750E0,4.276406849E-2,-1.901457337E-1,5.267358971E-1,5.616358881E-1
4.731158750E0,2.502590027E-2,-2.007486360E-1,2.540966034E-2,2.038920337E-1
4.741087750E0,-4.812923603E-2,-3.509392123E-1,5.413673848E-1,6.469570306E-1
4.751016750E0,-1.506447405E-2,-3.321100084E-1,2.757634610E-1,4.319368964E-1
4.760945750E0,-1.071051667E-1,-4.751741627E-1,-3.231229842E-2,4.881660438E-1
4.770874750E0,-9.929524178E-2,-5.920255050E-1,3.614988452E-1,7.007390090E-1
4.780803750E0,-1.311280320E-1,-3.256183931E-1,2.819702804E-1,4.502545255E-1
4.790732750E0,-1.918838368E-1,-1.731220587E-1,6.805457354E-2,2.672490955E-1
4.800661750E0,-1.118343947E-2,-1.607961464E-1,3.617017436E-1,3.959906834E-1
4.810590750E0,-2.032408107E-2,-2.561615659E-1,3.102871764E-1,4.028770879E-1
4.820519750E0,5.061017308E-2,-4.898224247E-1,-8.174536121E-1,9.543153594E-1
4.830448750E0,-1.427873617E-2,-7.856776495E-1,4.645905197E-1,9.128732673E-1
4.840377750E0,9.090035772E-2,-5.596780868E-1,4.775380093E-1,7.413130150E-1
4.850306750E0,-1.858845936E-1,-2.817796429E-1,2.619201779E-1,4.272645889E-1
4.860235750E0,-1.187748022E-1,-5.104852057E-1,6.987644899E-1,8.734840646E-1
4.870164750E0,5.044104237E-2,-4.574875414E-1,-3.697627151E-1,5.903927631E-1
4.880093750E0,-9.151519245E-2,-5.191534471E-1,-2.338360012E-2,5.276761552E-1
4.890022750E0,1.996296982E-1,-5.318520646E-1,5.833550709E-1,8.142614898E-1
4.899951750E0,1.090940789E-1,-5.830467034E-1,-5.529249913E-1,8.109075301E-1
4.909880750E0,1.018396759E-2,-6.993604673E-1,6.222033870E-1,9.361334474E-1
4.919809750E0,2.515772392E-1,-6.646972959E-1,3.811489981E-1,8.064664663E-1
4.929738750E0,1.027657287E-2,-6.664592081E-1,2.304680049E-2,6.669367579E-1
4.939667750E0,-6.884877160E-3,-7.141550924E-1,5.503101164E-1,9.016130665E-1
4.949596750E0,1.626329395E-1,-6.677569246E-1,-1.740517294E-1,7.089730516E-1
4.959525750E0,-6.031103276E-2,-7.144424830E-1,5.589107859E-1,9.090911664E-1
4.969454750E0,1.294200968E-1,-6.215971769E-1,3.221967852E-1,7.119995648E-1
4.979383750E0,6.682691406E-3,-4.978562431E-1,-3.210290962E-1,5.924231409E-1
4.989312750E0,2.348848455E-2,-5.831961363E-1,2.816907835E-1,6.480888364E-1
4.999241750E0,1.943506309E-1,-6.406889208E-1,-1.931183302E-1,6.968135693E-1
5.009170750E0,-9.158113807E-2,-6.957619447E-1,9.186963969E-1,1.156060058E0
5.019099750E0,2.209470568E-1,-5.325752190E-1,2.482803780E-1,6.277715443E-1
5.029028750E0,-9.807268035E-2,-5.703270359E-1,-7.080358350E-1,9.144429573E-1
5.038958750E0,-8.801978175E-3,-7.743647490E-1,8.335375482E-1,1.137762314E0
5.048887750E0,1.970904169E-1,-6.182708421E-1,3.484811890E-1,7.365749152E-1
5.058816750E0,-1.764600879E-1,-5.476942183E-1,-4.900820410E-1,7.558356477E-1
5.068745750E0,7.381662084E-2,-5.685222197E-1,3.306021577E-1,6.617886328E-1
5.078674750E0,4.107663514E-2,-5.160079374E-1,1.645406485E-1,5.431621364E-1
5.088603750E0,9.256421948E-2,-5.642388054E-1,-7.954458618E-1,9.796262978E-1
5.098532750E0,1.121867260E-1,-6.418685234E-1,-3.252654040E-1,7.282709976E-1
5.108461750E0,8.134008704E-2,-5.164528009E-1,2.867819542E-1,5.963083049E-1
5.118390750E0,1.888797384E-1,-1.582062501E-1,6.474855781E-2,2.547491882E-1
5.128319750E0,-2.153503943E-2,-2.276985443E-1,1.282107282E-1,2.621991149E-1
5.138248750E0,6.719664082E-2,-3.017011615E-1,2.179719204E-1,3.782204878E-1
5.148177750E0,1.088969729E-1,-3.409642278E-1,5.252319932E-2,3.617648986E-1
5.158106750E0,3.944681514E-2,-4.004267931E-1,-3.910296232E-1,5.610720399E-1
5.168035750E0,1.255324110E-5,-3.945627301E-1,-6.299357450E-1,7.433026241E-1
5.177964750E0,-1.330391396E-2,-3.010140588E-1,-2.787759465E-1,4.104905432E-1
5.187893750E0,-5.869137229E-2,-3.475996482E-1,-1.202748871E-1,3.724731414E-1
5.197822750E0,-1.179511305E-2,-4.338968402E-1,-5.092778653E-1,6.691558389E-1
5.207752125E0,-1.397538810E-1,-3.834037210E-1,1.863057393E-1,4.485971345E-1
5.217681125E0,2.334336396E-3,-1.988007458E-1,-2.172655767E-1,2.945021502E-1
5.227610125E0,-1.304590922E-1,-2.005347193E-1,-3.221593630E-1,4.012734773E-1
5.237539125E0,-3.547891287E-2,-1.743145070E-1,2.443902254E-1,3.022761699E-1
5.247468125E0,5.227154978E-3,-2.508831747E-1,-1.914998209E-1,3.156610079E-1
5.257397125E0,-2.263585087E-3,-2.905247752E-1,3.465703189E-2,2.925933674E-1
5.267326125E0,7.396691255E-2,-3.661466142E-1,-1.035606211E-1,3.876328798E-1
5.277255125E0,4.279480292E-2,-4.184845664E-1,-5.090784752E-1,6.603950495E-1
5.287184125E0,8.724000072E-2,-4.584196241E-1,-4.984932607E-1,6.828286026E-1
5.297113125E0,1.487536596E-1,-4.482235418E-1,-5.305061817E-1,7.102596733E-1
5.307042125E0,1.482729636E-2,-4.958324853E-1,-2.065762818E-2,4.964840780E-1
5.316971125E0,1.036516915E-1,-3.325213235E-1,4.473932737E-1,5.669875176E-1
5.326900125E0,8.999438647E-2,-3.924921214E-1,-3.505610436E-1,5.338933417E-1
5.336829125E0,-6.141284918E-2,-5.626102096E-1,5.264640015E-1,7.729593333E-1
5.346758125E0,1.802432182E-1,-6.116449966E-1,-1.254578590E-2,6.377731700E-1
5.356687125E0,5.694225082E-2,-4.267655394E-1,-2.828450239E-1,5.151432355E-1
5.366616125E0,-3.203508558E-2,-3.636443714E-1,3.087288934E-1,4.780972758E-1
5.376545125E0,1.836562928E-2,-4.294210524E-1,-3.219985646E-1,5.370501021E-1
5.386474125E0,-1.011595717E-1,-4.358435610E-1,3.814027673E-1,5.879293661E-1
5.396403125E0,9.798647046E-2,-4.698893396E-1,6.171560705E-1,7.818433060E-1
5.406332125E0,-3.533927405E-2,-5.157775571E-1,-1.854298264E-1,5.492354443E-1
5.416261125E0,-5.518861603E-2,-5.810300718E-1,1.962980461E-1,6.157715896E-1
5.426190125E0,1.122591950E-1,-5.390701599E-1,4.939125520E-1,7.396947838E-1
5.436119125E0,-4.159097085E-2,-6.378886161E-1,2.234636253E-1,6.771762601E-1
5.446049125E0,-2.546603115E-2,-6.019006483E-1,2.929431653E-1,6.698870108E-1
5.455978125E0,-1.271513589E-2,-3.349184261E-1,6.604430079E-1,7.406193311E-1
5.465907125E0,9.357299209E-3,-3.384829253E-1,5.299004102E-1,6.288502958E-1
5.475836125E0,3.808839731E-2,-3.863812329E-1,2.682714236E-1,4.719223875E-1
5.485765125E0,5.563154262E-2,-4.238464632E-1,3.824938577E-1,5.736220394E-1
5.495694125E0,1.149192030E-1,-3.716479671E-1,3.110911685E-1,4.981027502E-1
5.505623125E0,1.248743435E-1,-5.244988985E-1,6.625713944E-2,5.432151551E-1
5.515552125E0,1.431073871E-1,-6.789626748E-1,6.308812398E-1,9.378065775E-1
5.525481125E0,1.320030130E-1,-7.148983466E-1,1.007247216E-1,7.339277287E-1
5.535410125E0,2.462171149E-3,-6.267560291E-1,5.646445656E-1,8.435950852E-1
5.545339125E0,3.668864697E-2,-4.089913195E-1,6.755925590E-1,7.905980407E-1
5.555268125E0,2.356738541E-3,-2.899740588E-1,3.322423017E-1,4.409937143E-1
5.565197125E0,-1.269958595E-2,-2.806345936E-1,3.503926438E-1,4.491013911E-1
5.575126125E0,5.312780142E-3,-4.046487020E-1,2.866767043E-1,4.959358129E-1
5.585055125E0,7.400232475E-2,-4.253945866E-1,2.599280316E-1,5.039836108E-1
5.594984125E0,-5.117651246E-2,-3.049116300E-1,1.821512926E-1,3.588442990E-1
5.604913125E0,1.213649908E-2,-3.295307651E-1,2.795109415E-1,4.322779039E-1
5.614842125E0,7.934761176E-2,-3.143920679E-1,5.996927762E-1,6.817403037E-1
5.624771125E0,-1.389830170E-2,-3.110028025E-1,-3.446161795E-1,4.644095360E-1
5.634700125E0,8.037012532E-2,-3.353301432E-1,3.219839466E-1,4.717831322E-1
5.644629125E0,4.792683100E-2,-2.360545444E-1,3.393987089E-1,4.161853105E-1
5.654558125E0,3.385614607E-2,-1.965824401E-1,1.180435896E-1,2.317869354E-1
5.664487125E0,4.419263463E-2,-2.264752520E-1,1.331878781E-2,2.311307397E-1
5.674416125E0,3.627800798E-2,-2.070935959E-1,8.879581690E-2,2.282291577E-1
5.684345125E0,5.745298684E-2,-2.048130174E-1,-1.532064056E-1,2.621477074E-1
5.694274125E0,6.190065315E-2,-2.044789769E-1,-4.935260510E-1,5.377836981E-1
5.704203125E0,-4.086951580E-2,-1.523416024E-1,-1.517247212E-1,2.188576528E-1
5.714132125E0,-6.315742079E-2,-3.070213602E-1,4.334564352E-1,5.349163081E-1
5.724061125E0,-1.236991262E-2,-9.808601931E-2,8.802398443E-2,1.323710835E-1
5.733990125E0,-1.022565459E-1,-2.461125959E-2,-1.030437273E-1,1.472417230E-1
5.743919125E0,-7.298489096E-2,-4.631234167E-2,3.602995813E-1,3.705231647E-1
5.753848125E0,-6.166895723E-2,9.134584246E-2,-1.867571443E-1,2.168533011E-1
5.763777125E0,-9.693740688E-2,-3.781096520E-2,-7.054806018E-1,7.131124802E-1
5.773706125E0,-9.878149079E-2,-1.367474803E-1,1.438415051E-3,1.687001047E-1
5.783635125E0,5.896323128E-2,-8.398962490E-2,1.159719211E-1,1.548560823E-1
5.793564125E0,-1.676024881E-1,-1.339994534E-1,-4.731496739E-1,5.195354285E-1
5.803493125E0,-7.032851916E-2,-6.513642920E-2,-3.164916569E-1,3.306899211E-1
5.813422125E0,-1.017698748E-2,-1.106607489E-1,4.172918075E-1,4.318354143E-1
5.823351125E0,-1.606128727E-1,-9.056107303E-2,-4.208948618E-1,4.595109221E-1
5.833280125E0,-1.920533878E-1,-2.159676776E-1,-2.645332986E-1,3.917963854E-1
5.843209125E0,-9.171264561E-2,-1.945058197E-1,1.708164650E-1,2.746306392E-1
5.853138125E0,-1.601511619E-1,-1.139178856E-1,3.166442692E-2,1.990686195E-1
5.863067125E0,-1.063350884E-1,-6.781575132E-2,1.031413758E-1,1.629241251E-1
5.872996125E0,-1.728855388E-2,3.210505117E-2,-7.466602027E-2,8.309418144E-2
5.882925125E0,-5.477920130E-2,1.844654012E-2,-2.210189044E-1,2.284521654E-1
5.892854125E0,6.070919160E-2,-3.092622326E-1,-6.551904541E-1,7.270510750E-1
5.902783125E0,1.518096155E-1,-4.558224005E-1,-5.350787044E-1,7.191171254E-1
5.912712125E0,6.276549289E-2,-4.103215976E-1,2.241565204E-1,4.717514877E-1
5.922641125E0,3.933045555E-2,-2.813827449E-1,1.570912957E-2,2.845521228E-1
5.932570125E0,-1.844613813E-3,-9.521521915E-2,2.431254727E-1,2.611117309E-1
5.942499125E0,-1.468366316E-1,-1.326216301E-1,9.002776676E-1,9.217642714E-1
5.952428125E0,-2.734084949E-3,-3.334445989E-1,7.241191864E-2,3.412275805E-1
5.962357125E0,-7.252248583E-2,-2.204942448E-1,9.791396499E-2,2.519213517E-1
5.972286125E0,-1.233833400E-1,-3.580817689E-1,3.093317413E-1,4.890113782E-1
5.982215125E0,9.046088465E-2,-2.777849348E-1,-2.674867272E-1,3.961019956E-1
5.992144125E0,-7.821334329E-2,-1.722307786E-1,6.547887504E-2,2.001705554E-1
6.002073125E0,3.708735399E-2,-2.841444945E-1,1.755556333E-1,3.360555697E-1
6.012002125E0,1.809595752E-1,-2.506468741E-1,3.625320482E-1,4.764448649E-1
6.021931125E0,5.163988603E-2,-3.441523491E-1,-8.187329829E-2,3.575062995E-1
6.031860125E0,4.894503225E-2,-4.066282403E-1,-9.495001137E-2,4.204255543E-1
6.041789125E0,1.525448115E-1,-3.148062701E-1,1.045076362E0,1.102069648E0
6.051718125E0,1.917647364E-2,-4.018910090E-2,2.948686534E-1,2.982120449E-1
6.061647125E0,-4.437945317E-2,1.238951907E-2,3.795006680E-1,3.822875791E-1
6.071576125E0,-1.091474164E-3,-1.542616819E-1,6.411518741E-1,6.594494548E-1
6.081505125E0,1.287123645E-1,-3.339743932E-1,-3.391151190E-1,4.930566215E-1
6.091434125E0,-4.624614023E-2,-4.556338278E-1,-1.234592807E-1,4.743238182E-1
6.101363125E0,9.395793987E-2,-3.625196229E-1,8.156526697E-1,8.975176037E-1
6.111293125E0,7.102590926E-2,-9.389594112E-2,-5.226264739E-1,5.357233976E-1
6.121222125E0,-2.002020310E-1,-8.168596812E-2,5.343799621E-1,5.764680342E-1
6.131151125E0,2.474758377E-1,-1.711238824E-2,2.706676126E-1,3.671485810E-1
6.141080125E0,-1.218511502E-1,1.215197593E-3,4.449696028E-1,4.613535813E-1
6.151009125E0,1.622863276E-1,-4.516122591E-2,8.884955281E-1,9.043233337E-1
6.160938125E0,1.362495899E-1,3.453376528E-2,2.661132163E-1,3.009531119E-1
6.170867125E0,6.936826017E-3,-3.134387160E-2,1.279704076E-1,1.319355262E-1
6.180796125E0,1.155439597E-1,-2.349783461E-1,1.827798682E-1,3.193332272E-1
6.190725125E0,-2.244581636E-2,-2.546759711E-1,-8.244574070E-4,2.556645158E-1
6.200654125E0,-4.991435442E-2,-6.503616773E-2,4.814492118E-1,4.883794523E-1
6.210582917E0,-1.267555389E-1,-3.369315494E-2,5.538032430E-1,5.691223307E-1
6.220511917E0,-9.317717213E-2,-2.626684388E-2,1.613311118E-1,1.881479740E-1
6.230440917E0,-1.312887390E-1,-6.810462205E-2,2.043373829E-1,2.522473758E-1
6.240369917E0,-4.310987648E-2,-2.495141588E-1,-1.890346348E-2,2.539155722E-1
6.250298917E0,8.089805581E-2,-1.548389117E-1,4.894394320E-1,5.196831166E-1
6.260227917E0,-1.088471984E-1,-2.240916163E-2,3.776517785E-1,3.936632430E-1
6.270156917E0,5.487162385E-2,-8.876270704E-2,-1.229055494E-1,1.612311612E-1
6.280085917E0,1.000741823E-2,-1.824144721E-1,5.848969817E-3,1.827823802E-1
6.290014917E0,8.155380277E-2,-1.458885239E-1,2.598280442E-1,3.089418986E-1
6.299943917E0,7.250622327E-2,-1.142910476E-1,-3.696165347E-1,3.936190782E-1
6.309872917E0,-1.601004373E-1,-1.745262127E-1,-3.576157093E-1,4.289295333E-1
6.319801917E0,3.705672920E-5,-1.746296536E-1,5.957260251E-1,6.207938581E-1
6.329730917E0,-2.274457254E-2,-3.869944962E-1,4.406906104E-1,5.869329346E-1
6.339659917E0,-1.206506255E-1,-3.400357631E-1,1.173553723E-1,3.794116195E-1
6.349588917E0,6.447509084E-2,-2.495045839E-1,1.776992226E-1,3.130280953E-1
6.359517917E0,3.512354834E-2,-3.813037301E-1,-1.578713143E-1,4.141854055E-1
6.369446917E0,3.617648570E-2,-3.359620810E-1,-3.756379974E-1,5.052555424E-1
6.379375917E0,3.997089012E-2,-2.297498024E-1,-1.934229702E-1,3.029770439E-1
6.389304917E0,-5.350178568E-2,-3.328659803E-1,3.144252509E-1,4.610048160E-1
6.399233917E0,3.527493641E-2,-4.053329724E-1,-1.050148237E-1,4.201990634E-1
6.409162917E0,-1.041434058E-1,-4.076723338E-1,-3.299700737E-1,5.347175238E-1
6.419091917E0,6.033771068E-2,-4.938358804E-1,4.700518191E-1,6.844437367E-1
6.429020917E0,1.230323244E-1,-3.454391020E-1,-6.761193931E-2,3.728759852E-1
6.438949917E0,-9.500596192E-2,-3.332228067E-1,2.233560365E-1,4.122517323E-1
6.448878917E0,1.690814865E-1,-2.674627719E-1,-6.914858758E-2,3.238925912E-1
6.458807917E0,-8.010372983E-2,-2.959166572E-1,1.274166763E-2,3.068315916E-1
6.468736917E0,7.271429278E-2,-3.954401779E-1,1.563814437E-1,4.314110089E-1
6.478665917E0,1.367823626E-1,-2.739284951E-1,-3.049621171E-1,4.321436428E-1
6.488594917E0,-9.531195402E-2,-3.532611416E-1,1.350168872E-1,3.900094391E-1
6.498523917E0,2.666817301E-1,-4.348769432E-1,-4.709552139E-1,6.942880630E-1
6.508452917E0,-1.145744731E-1,-4.532659613E-1,-9.533475816E-2,4.771436447E-1
6.518381917E0,1.558352224E-1,-4.316174128E-1,5.961096025E-1,7.522797789E-1
6.528310917E0,4.752971370E-2,-3.486505390E-1,-3.297946572E-1,4.822663040E-1
6.538239917E0,-1.022065887E-1,-4.478592968E-1,6.639197624E-1,8.073497305E-1
6.548168917E0,1.074169512E-1,-4.114087777E-1,3.177201569E-2,4.263860279E-1
6.558097917E0,8.832060272E-2,-4.850977282E-1,2.968982220E-2,4.939654040E-1
6.568026917E0,4.383195279E-2,-5.726339818E-1,5.627418816E-2,5.770595302E-1
6.577955917E0,1.683148252E-1,-4.820386112E-1,-5.542447078E-1,7.535770028E-1
6.587884917E0,1.016375815E-2,-4.278215831E-1,5.223785520E-2,4.311187800E-1
6.597813917E0,5.677460019E-2,-2.789471786E-1,6.989118397E-2,2.931205575E-1
6.607742917E0,2.614436299E-4,-2.430660503E-1,-1.137745374E-1,2.683762630E-1
6.617671917E0,-1.533027202E-1,-2.197689707E-1,5.390694290E-1,6.019933337E-1
6.627600917E0,1.605179468E-2,-1.928934317E-1,-7.150676966E-2,2.063461999E-1
6.637529917E0,-1.259367643E-1,-3.664835966E-1,3.838545048E-1,5.454489674E-1
6.647458917E0,2.655555015E-2,-4.061946693E-1,5.135872632E-1,6.553405096E-1
6.657387917E0,-1.295147303E-2,-3.921928902E-1,-1.098300058E-1,4.074869739E-1
6.667316917E0,-3.393566821E-2,-4.504702248E-1,3.061268824E-1,5.457002118E-1
6.677245917E0,1.250668630E-1,-1.828429085E-1,1.676279783E-1,2.777991875E-1
6.687174917E0,-2.237924581E-1,-1.325605815E-1,-1.432678932E-1,2.969529614E-1
6.697103917E0,3.305233665E-2,8.127300851E-2,7.560157478E-2,1.158160480E-1
6.707032917E0,-1.291655785E-1,-4.704576524E-2,-1.430591476E-1,1.984010343E-1
6.716961917E0,-1.350517512E-1,-2.027307508E-1,5.651801705E-1,6.154407835E-1
6.726890917E0,-6.863860074E-2,1.772789905E-2,1.696815205E-1,1.838949545E-1
6.736819917E0,-7.363870103E-2,-1.590529635E-1,9.332916319E-2,1.985719924E-1
6.746748917E0,-5.771139722E-2,-2.019588452E-1,8.696739256E-1,8.946791142E-1
6.756677917E0,-9.706122167E-3,-2.288191449E-1,-3.225686681E-1,3.956045444E-1
6.766606917E0,-1.073999760E-1,-2.674888103E-1,-2.339798427E-1,3.712567646E-1
6.776535917E0,-8.781556774E-2,-2.014182884E-1,1.538648021E-1,2.682448102E-1
6.786464917E0,-6.899520781E-2,9.631149899E-3,-2.853131336E-1,2.936948790E-1
6.796393917E0,-1.902834539E-1,-3.117899839E-2,5.575337666E-1,5.899354403E-1
6.806322917E0,-3.372948077E-2,-1.201423746E-2,2.051635945E-1,2.082645440E-1
6.816251917E0,-1.816605650E-2,3.856591383E-2,4.205270720E-1,4.226823317E-1
6.826180917E0,-6.229930535E-2,-3.747754600E-3,4.433943629E-2,7.655870115E-2
6.836109917E0,7.859871134E-2,-2.026844481E-1,-4.516038537E-2,2.220319872E-1
6.846038917E0,3.435465775E-2,-2.507889066E-1,5.674401194E-1,6.213401703E-1
6.855967917E0,-7.087589163E-2,-2.021208862E-1,-4.969431639E-1,5.411365380E-1
6.865896917E0,-3.569462031E-2,-1.758181002E-1,5.212161255E-1,5.512280470E-1
6.875825917E0,1.162744049E-1,-6.819713596E-2,-2.457994044E-2,1.370210205E-1
6.885754917E0,-8.969749410E-2,-1.857918604E-1,-1.878476501E-1,2.790179124E-1
6.895683917E0,2.039370314E-1,-2.350326338E-1,2.843916124E-1,4.215557388E-1
6.905612917E0,1.756636241E-1,-2.731447124E-1,-2.989353919E-1,4.413933747E-1
6.915541917E0,2.958676502E-2,-3.904595562E-1,1.082483339E-1,4.062656070E-1
6.925470917E0,8.555119693E-2,-3.258053213E-1,1.013784403E-1,3.517750742E-1
6.935399917E0,4.743816823E-2,-2.923134384E-1,1.748767716E-1,3.439177392E-1
6.945328917E0,-7.891252410E-2,-4.006080933E-1,6.055259585E-1,7.303257611E-1
6.955257917E0,5.935461100E-2,-3.123557020E-1,7.552614570E-2,3.267923700E-1
6.965186917E0,9.398507461E-2,-2.367179110E-1,-2.358474433E-2,2.557827278E-1
6.975115917E0,1.555058232E-1,-4.558813843E-1,-1.905736220E-1,5.180040569E-1
6.985044917E0,2.350436705E-1,-6.146625254E-1,-4.303310984E-1,7.862826473E-1
6.994973917E0,7.565529607E-2,-6.316978765E-1,-4.614067107E-1,7.859148069E-1
7.004902917E0,3.620939456E-2,-5.597198213E-1,2.515858090E-1,6.147298739E-1
7.014831917E0,-2.653974440E-2,-3.009425949E-1,2.023639476E-1,3.636233913E-1
7.024760917E0,-1.083643646E-1,-2.685206429E-1,2.571026570E-1,3.872311292E-1
7.034689917E0,-3.450639300E-2,-5.009819819E-1,1.328966868E-1,5.194566071E-1
7.044618917E0,8.548358850E-2,-7.418277714E-1,4.118954122E-2,7.478719573E-1
7.054547917E0,-1.732383817E-2,-6.855904207E-1,1.045774519E-1,6.937368260E-1
7.064476917E0,9.723996375E-2,-6.127214690E-1,-1.443823725E-1,6.369689778E-1
7.074405917E0,8.043086328E-2,-5.820180685E-1,3.894286555E-1,7.048892350E-1
7.084334917E0,9.370605279E-2,-7.219389790E-1,4.111177325E-3,7.280066040E-1
7.094263917E0,6.046770159E-2,-7.545979442E-1,-6.338194656E-1,9.873203712E-1
7.104192917E0,8.773516852E-2,-7.217386387E-1,-5.290736139E-2,7.289741500E-1
7.114121917E0,6.678982079E-2,-6.490524126E-1,-9.373203635E-2,6.591779798E-1
7.124050917E0,-2.489280302E-2,-5.825150088E-1,3.971177441E-1,7.054402099E-1
7.133979917E0,3.909013499E-2,-4.425184135E-1,1.305326575E-1,4.630219861E-1
7.143908917E0,2.045370653E-2,-5.805732216E-1,3.865664434E-1,6.977945506E-1
7.153837917E0,9.631402060E-2,-7.883887842E-1,6.739617705E-1,1.041661045E0
7.163766917E0,1.210477428E-1,-9.030442046E-1,-3.179949760E-1,9.650192725E-1
7.173695917E0,-5.624634080E-2,-9.056711394E-1,-2.104266733E-1,9.314951682E-1
7.183624917E0,1.733495519E-1,-6.431076215E-1,8.804269552E-1,1.103987819E0
7.193553917E0,2.500989351E-2,-4.116350649E-1,-1.119587431E0,1.193124024E0
7.203482917E0,-1.213679510E-1,-6.475903163E-1,4.635286653E-1,8.055819144E-1
7.213412792E0,2.603204163E-1,-6.120827704E-1,2.954650694E-1,7.278129184E-1
7.223341792E0,-1.890755653E-2,-6.586639195E-1,2.942804235E-1,7.216624018E-1
7.233270792E0,9.008944027E-2,-7.630120144E-1,9.720060468E-2,7.744361813E-1
7.243199792E0,2.028792701E-1,-7.083903956E-1,3.997390509E-1,8.383127457E-1
7.253128792E0,2.361328606E-1,-6.546327759E-1,-3.347530961E-3,6.959267240E-1
7.263057792E0,4.912176434E-2,-6.392293096E-1,3.044557482E-1,7.097325979E-1
7.272986792E0,1.653590394E-1,-5.649421523E-1,2.860726869E-1,6.544775241E-1
7.282915792E0,-4.013229154E-2,-4.560939306E-1,4.118112123E-1,6.158090199E-1
7.292844792E0,2.726553004E-2,-4.280214483E-1,3.063227642E-1,5.270478205E-1
7.302773792E0,1.032548849E-2,-2.422579469E-1,-5.364703417E-2,2.483415648E-1
7.312702792E0,3.271593902E-2,-1.758342531E-1,3.626595175E-1,4.043636271E-1
7.322631792E0,1.889603386E-1,-3.772538023E-1,3.125284141E-1,5.250718528E-1
7.332560792E0,1.216115606E-1,-5.650916583E-1,-9.318356752E-2,5.854922128E-1
7.342489792E0,6.346600760E-2,-7.454867397E-1,6.817648798E-1,1.012216264E0
7.352418792E0,1.806294816E-1,-6.971196681E-1,3.505399936E-1,8.009251703E-1
7.362347792E0,-1.400025156E-1,-6.028693492E-1,1.571526915E-1,6.385523667E-1
7.372276792E0,-2.247011885E-2,-4.314987143E-1,2.016213512E-1,4.768094126E-1
7.382205792E0,-1.633857137E-1,-3.629233366E-1,4.279664844E-1,5.844343860E-1
7.392134792E0,-1.759080377E-1,-3.455886080E-1,3.670940459E-2,3.895159869E-1
7.402063792E0,-8.772098903E-2,-2.977324735E-1,-4.223736227E-2,3.132468554E-1
7.411992792E0,-2.476584535E-2,-3.443866763E-1,6.489099598E-1,7.350507913E-1
7.421921792E0,1.660528115E-1,-4.015594718E-1,3.740510631E-1,5.733565587E-1
7.431850792E0,2.683857366E-2,-3.943460908E-1,-5.624331486E-1,6.874301383E-1
7.441779792E0,7.494445737E-2,-4.228491475E-1,4.946048623E-1,6.550206432E-1
7.451708792E0,5.722691886E-2,-2.830476299E-1,9.924829960E-2,3.053540666E-1
7.461637792E0,-2.185874129E-1,-2.761175282E-1,-4.464875400E-1,5.686584826E-1
7.471566792E0,4.708908945E-3,-3.945773482E-1,6.195288706E-1,7.345267041E-1
7.481495792E0,-9.615300290E-2,-2.150630768E-1,1.876833433E-1,3.012018664E-1
7.491424792E0,-1.554270320E-1,-2.248434951E-1,-4.181285441E-2,2.765148719E-1
7.501353792E0,-6.293434951E-2,-2.721225825E-1,-2.375671095E-1,3.666736475E-1
7.511282792E0,-8.605840635E-2,-3.453998891E-1,-2.821228927E-1,4.542031036E-1
7.521211792E0,-1.304602251E-1,-5.081435420E-1,5.790129286E-1,7.813358440E-1
7.531140792E0,-1.427897371E-2,-4.034791127E-1,-4.229606831E-1,5.847179003E-1
7.541069792E0,-3.409599155E-1,-3.243504975E-1,-6.714533150E-2,4.753581857E-1
7.550998792E0,-6.766869385E-2,-3.774749733E-1,3.356383646E-1,5.096268432E-1
7.560927792E0,-1.173681265E-1,-2.002813887E-1,-3.596657431E-1,4.280740106E-1
7.570856792E0,-1.066472567E-1,-2.971122301E-1,-7.928292328E-1,8.533624711E-1
7.580785792E0,-4.273938227E-2,-1.915443329E-1,-1.858227593E-1,2.702702058E-1
7.590714792E0,-3.932413325E-2,-1.243194518E-1,-3.314377248E-2,1.345370700E-1
7.600643792E0,-1.138169298E-1,-2.585620672E-1,-2.731170112E-1,3.929396110E-1
7.610572792E0,-1.339027368E-1,-3.277916204E-1,-3.341379690E-1,4.868526180E-1
7.620501792E0,-1.759690680E-1,-2.754806385E-1,2.819012833E-1,4.316515129E-1
7.630430792E0,-1.733454954E-1,-2.495393566E-1,-2.689432687E-1,4.057696798E-1
7.640359792E0,-3.199706771E-1,-2.532921362E-1,-1.789739156E-1,4.456117177E-1
7.650288792E0,-1.372216164E-1,-2.420184851E-1,6.739032984E-2,2.862589312E-1
7.660217792E0,-2.417155262E-1,-2.060765276E-1,-2.147290546E-1,3.834090475E-1
7.670146792E0,-8.151011311E-2,-2.840984476E-1,-1.238656622E-1,3.204661117E-1
7.680075792E0,-8.207648903E-2,-2.040079106E-1,-3.537851983E-1,4.165570119E-1
7.690004792E0,-1.314527169E-3,-2.360635162E-1,-2.261457431E-1,3.269091752E-1
7.699933792E0,1.267546618E-1,-3.336236699E-1,-3.779821461E-1,5.198480549E-1
7.709862792E0,-9.135382757E-2,-4.129805093E-1,-4.402140623E-1,6.104808298E-1
7.719791792E0,-7.968673199E-2,-3.903084422E-1,4.384996587E-1,5.924294101E-1
7.729720792E0,-1.901978653E-1,-3.720331158E-1,7.740777969E-2,4.249421509E-1
7.739649792E0,-3.535480572E-1,-3.306249619E-1,1.553283602E-1,5.083660036E-1
7.749578792E0,-1.120708781E-1,-3.100578924E-1,5.877533466E-1,6.739063546E-1
7.759507792E0,-8.388667736E-2,-2.704637275E-1,-1.436193109E-1,3.175123761E-1
7.769436792E0,-1.255462982E-1,-3.805840840E-1,-3.513387233E-1,5.329587381E-1
7.779365792E0,-6.638139278E-2,-5.069438030E-1,-1.188037276E-1,5.248931647E-1
7.789294792E0,-2.048809547E-1,-3.806997127E-1,-1.228476620E-1,4.494441288E-1
7.799223792E0,-2.136731936E-1,-4.494791583E-1,3.095855105E-1,5.861151215E-1
7.809152792E0,-3.542189156E-1,-4.102645507E-1,5.839257592E-1,7.967165957E-1
7.819081792E0,-2.889009486E-1,-3.131488768E-1,5.066232294E-1,6.619615349E-1
7.829010792E0,-2.673321049E-1,-4.347191780E-1,3.762402606E-1,6.340378157E-1
7.838939792E0,-2.070716140E-1,-4.741173150E-1,4.744302142E-1,7.019614732E-1
7.848868792E0,1.127160452E-2,-5.456742977E-1,1.840031058E-1,5.759727694E-1
7.858797792E0,-4.024539862E-2,-5.370866382E-1,5.497786045E-2,5.413910917E-1
7.868726792E0,9.290056229E-3,-5.065972824E-1,4.998802203E-1,7.117635466E-1
7.878655792E0,5.010150187E-3,-5.462558763E-1,-4.096576828E-1,6.828176924E-1
7.888584792E0,-8.639696013E-2,-6.695845449E-1,3.603726715E-1,7.652949496E-1
7.898513792E0,6.906833455E-2,-6.528829966E-1,1.945719481E-1,6.847516960E-1
7.908442792E0,-7.863883786E-2,-7.158914231E-1,-1.364336675E-1,7.330066453E-1
7.918371792E0,-5.611554589E-2,-7.382407969E-1,8.005592519E-1,1.090432733E0
7.928300792E0,-1.043380816E-2,-5.971961613E-1,6.800329345E-1,9.050949737E-1
7.938229792E0,-2.131610141E-1,-5.608935767E-1,2.535808790E-1,6.514157540E-1
7.948158792E0,-1.571494390E-1,-3.977116019E-1,1.154969518E0,1.231594516E0
7.958087792E0,6.034436189E-3,-2.551973417E-1,6.739810663E-1,7.207028344E-1
7.968016792E0,-8.165738985E-2,-4.476442654E-1,-2.120200396E-2,4.555247992E-1
7.977945792E0,-2.059118919E-2,-5.053767857E-1,3.614865661E-2,5.070862037E-1
7.987874792E0,1.109547908E-1,-4.973629940E-1,6.568031162E-1,8.313069510E-1
7.997803792E0,1.013410181E-2,-3.387289104E-1,-6.726701206E-1,7.532098419E-1
8.007732792E0,-1.237112592E-1,-5.484369243E-1,1.146447201E0,1.276882422E0
8.017661792E0,1.516692092E-1,-4.151642981E-1,5.629056036E-1,7.157008188E-1
8.027590792E0,-2.239798614E-1,-6.027461922E-1,6.436807948E-1,9.098323561E-1
8.037519792E0,-4.960028585E-2,-7.002146725E-1,5.677511913E-1,9.028301009E-1
8.047448792E0,-7.511494026E-2,-5.547596283E-1,3.116051388E-1,6.407013828E-1
8.057377792E0,-2.373924970E-1,-4.787944297E-1,5.820493877E-1,7.901776973E-1
8.067306792E0,-1.485758128E-1,-3.179166964E-1,-1.790534377E-2,3.513778584E-1
8.077235792E0,-2.866188899E-1,-3.890583075E-1,4.580615187E-1,6.658356476E-1
8.087164792E0,-1.256223485E-1,-5.475225660E-1,7.705811620E-2,5.670096013E-1
8.097093792E0,-1.995124798E-1,-7.469801916E-1,9.441031337E-2,7.789081740E-1
8.107022792E0,-1.430610845E-1,-6.094232740E-1,-5.637300611E-3,6.260151595E-1
8.116951792E0,-1.981335237E-1,-6.028824323E-1,3.528449661E-1,7.261017081E-1
8.126880792E0,-8.173453655E-2,-5.096918482E-1,8.043891782E-1,9.557762628E-1
8.136809792E0,-1.263973239E-1,-4.579465843E-1,4.610962236E-1,6.620431142E-1
8.146738792E0,-1.848443008E-1,-5.258221234E-1,4.697296375E-1,7.289048315E-1
8.156667792E0,-1.421169784E-1,-6.277882820E-1,3.931761360E-1,7.542564792E-1
8.166596792E0,-1.539866069E-1,-6.309845162E-1,9.658196926E-2,6.566440524E-1
8.176525792E0,-8.650144257E-2,-6.141082093E-1,-4.146710855E-1,7.460318367E-1
8.186454792E0,-1.612670482E-1,-6.613880642E-1,-1.506611127E-1,6.972374080E-1
8.196383792E0,-1.168676414E-1,-6.272243180E-1,2.212101084E-1,6.752794257E-1
8.206312792E0,-1.317466491E-1,-4.939255255E-1,-3.533139127E-1,6.214099494E-1
8.216241792E0,-1.592759982E-1,-5.370868575E-1,2.371502030E-1,6.083349035E-1
8.226170792E0,-8.527853396E-2,-5.461154701E-1,7.037767231E-1,8.948833505E-1
8.236099792E0,-4.188207082E-2,-4.909212627E-1,-1.212221360E-1,5.073978717E-1
8.246028792E0,-1.826421663E-1,-6.475520170E-1,1.040044248E-1,6.808073854E-1
8.255957792E0,-1.074941527E-1,-5.738008668E-1,2.157529020E-1,6.223758851E-1
8.265886792E0,-1.417403081E-1,-5.422718760E-1,-2.970385551E-4,5.604901343E-1
8.275815792E0,-1.825008464E-1,-5.748914456E-1,6.129098225E-1,8.599216148E-1
8.285744792E0,-3.645450253E-2,-4.730931387E-1,-1.362518191E-2,4.746911566E-1
8.295673792E0,-2.782338365E-1,-6.064569084E-1,-3.594219142E-1,7.578840029E-1
8.305602792E0,-3.595968191E-2,-5.616076314E-1,1.552587783E-1,5.837820815E-1
8.315531792E0,6.120777637E-2,-3.133072633E-1,-8.158976680E-1,8.761260399E-1
8.325460792E0,-2.388629255E-1,-5.766545273E-1,2.467133242E-1,6.711582566E-1
8.335389792E0,7.879970938E-2,-2.833068443E-1,1.921588022E-1,3.512793297E-1
8.345318792E0,-2.827386776E-1,-2.986350095E-1,-2.428407133E-1,4.775935937E-1
8.355247792E0,-3.766041767E-1,-3.227621379E-1,6.740904093E-1,8.369014180E-1
8.365176792E0,-1.081195490E-1,-2.227056800E-1,3.047679895E-1,3.926463857E-1
8.375105792E0,-3.134375465E-1,-1.381768504E-1,-1.142639494E-1,3.610985845E-1
8.385034792E0,-3.139329884E-2,-1.922574374E-1,-1.192446077E-1,2.284025786E-1
8.394963792E0,-7.057165369E-2,-2.469706200E-1,-3.076875043E-1,4.008072426E-1
8.404892792E0,3.668579645E-3,-1.362232957E-1,-4.472517711E-1,4.675514854E-1
8.414821792E0,-2.958599757E-2,-1.840052619E-1,-2.520424765E-1,3.134624023E-1
8.424750792E0,-3.777304966E-2,-2.117753701E-1,1.131371909E-1,2.430547976E-1
8.434679792E0,-2.580184406E-2,-1.215826808E-1,4.341966927E-2,1.316561852E-1
8.444608792E0,-1.977542221E-1,-1.258692107E-1,-1.070250964E-1,2.576900499E-1
8.454537792E0,-2.157891182E-1,-7.567688509E-2,5.555691022E-1,6.007902810E-1
8.464466792E0,-1.834097413E-1,3.903363626E-2,3.597668999E-1,4.057030691E-1
8.474395792E0,-3.371402950E-1,6.038463458E-2,4.992610002E-1,6.054514257E-1
8.484324792E0,-1.361550660E-1,-2.149862224E-2,5.358932215E-1,5.533370922E-1
8.494253792E0,-1.198335319E-1,1.422755476E-3,-5.080405945E-1,5.219840469E-1
8.504182792E0,-1.418624418E-1,-2.787660062E-3,-6.006914806E-1,6.172219847E-1
8.514111792E0,-1.134659506E-2,1.144989161E-1,-5.294408190E-1,5.417991582E-1
8.524040792E0,7.676754612E-3,1.863998977E-1,-4.971191651E-1,5.309720508E-1
8.533969792E0,-1.360669740E-1,-2.763904835E-2,2.500941843E-1,2.860511133E-1
8.543898792E0,-1.257807350E-2,3.938612287E-2,-1.510943913E-1,1.566492570E-1
8.553827792E0,-2.335290589E-1,2.239268892E-2,3.530186284E-1,4.238624846E-1
8.563756792E0,-1.013603139E-1,-1.752509020E-1,6.486158448E-1,6.794772300E-1
8.573685792E0,-1.469212884E-1,-1.508737686E-1,2.641830504E-1,3.378482546E-1
8.583614792E0,-2.061580049E-1,-2.361384885E-1,-8.716795206E-2,3.253625064E-1
8.593543792E0,-1.730602061E-1,-2.563283760E-1,-3.346057463E-1,4.556479745E-1
8.603471792E0,-1.039888749E-1,-2.213631227E-1,-4.030070597E-1,4.714127792E-1
8.613401792E0,-9.332132427E-2,-1.305476136E-1,-3.965891558E-1,4.278253235E-1
8.623329792E0,-8.588054135E-2,-7.865543847E-2,-5.121096718E-1,5.251842166E-1
8.633258792E0,-1.669615967E-1,-2.139125274E-2,5.458235478E-1,5.711892032E-1
8.643187792E0,-1.923876476E-2,1.278694426E-1,-5.491365802E-1,5.641557482E-1
8.653116792E0,-2.223261226E-1,-1.001245231E-1,2.476529717E-1,3.475425432E-1
8.663045792E0,4.289804282E-2,-2.919031284E-1,5.701766163E-1,6.419883583E-1
8.672974792E0,-1.044724396E-1,-3.031651581E-1,-2.368134034E-1,3.986278863E-1
8.682903792E0,-7.897379195E-2,-2.483156623E-1,-4.911193371E-2,2.651594048E-1
8.692832792E0,8.821511529E-3,-2.020856202E-1,6.118058681E-2,2.113278996E-1
8.702761792E0,-5.974416347E-2,-1.942274191E-1,-2.624627995E-1,3.319342956E-1
8.712690792E0,-1.989295855E-2,-1.664797131E-1,-3.903408211E-1,4.248260601E-1
8.722619792E0,-5.777202554E-2,-3.067243948E-1,-6.203948432E-1,6.944834215E-1
8.732548792E0,-1.186786338E-1,-4.543673209E-1,-1.526509202E-1,4.937981205E-1
8.742477792E0,-1.121484999E-1,-3.825056253E-1,2.865129822E-1,4.908946204E-1
8.752406792E0,-1.450830699E-1,-3.271542374E-1,-1.418908739E-1,3.849831325E-1
8.762335792E0,-9.880230322E-2,-3.229244347E-1,4.291259873E-1,5.460688588E-1
8.772264792E0,-3.799341660E-2,-3.033570198E-1,-4.359683990E-2,3.088197948E-1
8.782193792E0,-4.633308101E-2,-2.595044008E-1,-2.069236064E-1,3.351218693E-1
8.792122792E0,9.939645343E-3,-2.611140662E-1,-3.200964653E-1,4.132083000E-1
8.802051792E0,-1.055754072E-1,-2.136112131E-1,-2.612804925E-1,3.536147802E-1
8.811980792E0,-1.112743411E-1,-1.794726465E-1,9.453193545E-3,2.113806347E-1
8.821909792E0,-1.408455562E-1,-1.849179392E-1,1.176810622E-2,2.327457911E-1
8.831838792E0,-2.160501781E-1,-2.289448784E-1,-1.831786484E-1,3.642085309E-1
8.841767792E0,-1.347383039E-1,-3.117150664E-1,3.792714572E-1,5.090849943E-1
8.851696792E0,-1.475429205E-1,-1.563265165E-1,-2.741244864E-1,3.483548869E-1
8.861625792E0,-1.111540529E-1,-2.624873213E-1,-1.460301179E-1,3.202805218E-1
8.871554792E0,-4.906356627E-2,-2.413603810E-1,-4.175379753E-1,4.847680145E-1
8.881483792E0,-1.001936116E-1,-1.189824788E-1,1.654399502E-1,2.270814110E-1
8.891412792E0,2.220619015E-2,8.036420502E-2,6.284470439E-2,1.044077449E-1
8.901341792E0,-6.085093176E-2,-1.480739207E-1,-5.608415365E-2,1.696294614E-1
8.911270792E0,1.844162481E-2,-1.855642392E-1,3.211466253E-2,1.892234974E-1
8.921199792E0,-3.151967179E-2,-1.972964947E-1,-2.706418848E-1,3.364021795E-1
8.931128792E0,-3.817137295E-2,-8.308036460E-2,-1.277604926E-1,1.571055192E-1
8.941057792E0,3.435513284E-3,-4.035217426E-2,2.242407203E-1,2.278683860E-1
8.950986792E0,-2.921457147E-2,9.507998401E-2,1.737482589E-1,2.002052747E-1
8.960915792E0,-5.541565245E-2,-4.192307442E-2,-2.400200164E-1,2.498760633E-1
8.970844792E0,-3.433870582E-2,-2.215267534E-1,3.326820123E-1,4.011615267E-1
8.980773792E0,-7.403055584E-2,-1.045331867E-1,5.453873456E-2,1.392199120E-1
8.990702792E0,1.700242404E-3,-1.035380545E-1,2.818901736E-1,3.003083241E-1
9.000631792E0,-1.052614300E-1,-9.134084492E-2,-5.342893302E-2,1.492573934E-1
9.010560792E0,-1.147684179E-1,-3.602938254E-2,-2.904721320E-2,1.237483202E-1
9.020489792E0,-9.680127639E-2,-4.877164403E-2,3.194181883E-1,3.373086708E-1
9.030418792E0,-5.752615012E-2,-6.203000452E-2,6.418430150E-2,1.061913554E-1
9.040347792E0,-1.085956403E-1,-1.250288744E-1,2.366052425E-1,2.888031740E-1
9.050276792E0,8.400948716E-2,-2.490487752E-1,3.742592239E-1,4.573323224E-1
9.060205792E0,-2.043813832E-2,-1.494470662E-1,-2.055050719E-1,2.549205321E-1
9.070134792E0,2.571402619E-2,-1.760821385E-1,2.472822583E-1,3.046549621E-1
9.080063792E0,3.046578426E-2,-1.426382120E-1,3.797825038E-2,1.507188477E-1
9.089992792E0,-1.886799647E-2,-1.626662504E-1,2.603683269E-1,3.075840958E-1
9.099921792E0,9.926881967E-2,-1.496116562E-1,-1.029536802E-1,2.069719945E-1
9.109850792E0,-4.005055843E-2,-1.377517122E-1,6.155211890E-1,6.320173380E-1
9.119779792E0,1.831127393E-1,-1.593676899E-2,1.707398665E-1,2.508711978E-1
9.129708792E0,-6.127023194E-3,7.598894368E-2,-2.905867374E-1,3.004205584E-1
9.139637792E0,9.158556003E-2,-1.397837110E-1,-1.361301970E-1,2.155431075E-1
9.149566792E0,5.882525526E-2,-2.603688751E-1,9.141653895E-2,2.821512810E-1
9.159495792E0,3.467150375E-2,-2.955833293E-2,9.345791888E-1,9.356890875E-1
9.169424792E0,9.703107197E-3,2.306894682E-2,-1.674408674E-1,1.693008289E-1
9.179353792E0,-9.397570079E-2,-1.326736612E-1,-1.322324431E-1,2.095689665E-1
9.189282792E0,2.448171452E-1,-1.019842301E-1,3.567415506E-1,4.445230609E-1
9.199211792E0,1.429697035E-1,-2.901542810E-1,-7.416479695E-1,8.091177625E-1
9.209140792E0,1.202591727E-1,-3.620154833E-1,-6.354999554E-1,7.412001566E-1
9.219073250E0,2.891589570E-1,-1.138532739E-1,-1.370353460E-1,3.396382729E-1
9.229002250E0,-3.301178986E-2,-1.602934503E-1,2.088929486E-1,2.653677306E-1
9.238931250E0,2.336079049E-1,-3.362605083E-1,-4.157639301E-1,5.835267160E-1
9.248860250E0,1.026942831E-2,-3.928268380E-1,-1.276125580E-1,4.131626202E-1
9.258789250E0,1.998061197E-1,-3.619259112E-1,-1.174448347E-1,4.297745221E-1
9.268718250E0,1.556723958E-1,-3.965929565E-1,-1.367359686E-1,4.474556884E-1
9.278647250E0,1.489062353E-1,-4.209778557E-1,-5.242712957E-1,6.886623363E-1
9.288576250E0,9.190677317E-2,-3.568049198E-1,-6.126882130E-1,7.149429712E-1
9.298505250E0,2.066121143E-1,-3.281219150E-1,3.260074157E-1,5.065899643E-1
9.308434250E0,1.827728150E-1,-2.477268477E-1,-5.234643799E-1,6.072803718E-1
9.318363250E0,2.634601701E-1,-3.625426098E-1,-7.243080515E-1,8.517455950E-1
9.328292250E0,2.671430389E-1,-2.985883779E-1,-3.452880245E-1,5.289085389E-1
9.338221250E0,3.934604934E-1,-3.304105152E-1,-4.686250985E-1,6.954076153E-1
9.348150250E0,2.612532116E-1,-3.954946301E-1,-6.342521596E-1,7.917986139E-1
9.358079250E0,3.659767891E-1,-2.982453839E-1,1.023484933E0,1.127124983E0
9.368008250E0,3.163030842E-1,-7.844658324E-2,-1.014187860E0,1.065259839E0
9.377937250E0,1.532309822E-1,-3.505268740E-1,-5.255360484E-1,6.500284313E-1
9.387866250E0,3.842640292E-1,-3.092538272E-1,1.023989548E0,1.136596396E0
9.397795250E0,4.429025390E-1,-2.203182253E-1,-1.328347063E0,1.417465590E0
9.407724250E0,1.028192125E-1,-2.144415543E-1,-8.652896833E-1,8.973757333E-1
9.417653250E0,5.445865328E-1,-4.037119781E-1,-1.309191585E-1,6.904329649E-1
9.427582250E0,4.054658504E-1,-1.887925236E-1,-4.845868278E-1,6.594464091E-1
9.437511250E0,2.441002949E-1,-1.536751148E-1,-4.990926003E-1,5.764498405E-1
9.447440250E0,3.439565039E-1,-1.910417647E-1,-3.638535190E-1,5.359033641E-1
9.457369250E0,3.527060581E-1,-6.902814408E-2,5.088124269E-1,6.229418383E-1
9.467298250E0,3.308141193E-1,-9.266959727E-2,-6.820502239E-1,7.636872028E-1
9.477227250E0,2.135410283E-1,-1.477316668E-1,-5.377157986E-2,2.651712634E-1
9.487156250E0,2.989118934E-1,-4.135043101E-2,-2.918462276E-2,3.031664895E-1
9.497085250E0,1.691611548E-1,3.433078467E-2,2.459759903E-1,3.004967336E-1
9.507014250E0,1.404691965E-1,1.095566210E-1,-1.908297300E-2,1.791602864E-1
9.516942250E0,1.798970813E-1,-5.046961150E-2,-7.114541173E-2,1.999295155E-1
9.526871250E0,1.498830493E-1,-1.350058414E-1,-9.669832885E-2,2.237008549E-1
9.536800250E0,2.768589551E-1,-1.577997590E-1,-3.063631099E-1,4.420520333E-1
9.546729250E0,1.546487127E-1,-8.393482553E-2,-4.073521256E-2,1.806118402E-1
9.556658250E0,1.985398686E-1,1.754055974E-2,4.308462381E-1,4.747148950E-1
9.566587250E0,1.459646839E-1,1.950982523E-1,7.364112031E-1,7.756742081E-1
9.576516250E0,1.243183281E-1,1.375971630E-1,1.721496302E-1,2.530286962E-1
9.586445250E0,1.930777652E-1,3.453054931E-2,5.830779129E-1,6.151839032E-1
9.596374250E0,2.061580049E-1,1.385880650E-1,4.425593805E-1,5.075101773E-1
9.606303250E0,2.684730612E-1,9.329896781E-2,-6.724414945E-2,2.920689261E-1
9.616232250E0,3.296082041E-1,9.627975044E-2,-1.701522213E-1,3.832272655E-1
9.626161250E0,2.614613177E-1,-2.172753160E-2,1.683571261E-1,3.117342269E-1
9.636090250E0,4.205432980E-1,1.543444748E-2,3.250291765E-2,4.220797641E-1
9.646019250E0,1.831152061E-1,-1.040984371E-2,7.883800864E-3,1.835802218E-1
9.655948250E0,3.590823372E-1,-4.869883706E-2,3.947332495E-1,5.358414317E-1
9.665877250E0,2.713617684E-1,1.482908707E-2,6.163017923E-1,6.735614377E-1
9.675806250E0,2.169373104E-1,3.934445232E-2,-1.193270534E-1,2.506964863E-1
9.685735250E0,2.139729730E-1,5.088441663E-2,7.532652175E-1,7.847178761E-1
9.695664250E0,2.193675228E-1,9.070199093E-2,5.258009273E-1,5.769017042E-1
9.705593250E0,1.463422313E-1,1.109673623E-1,1.607569152E-1,2.440749679E-1
9.715522250E0,2.502685409E-1,2.450311351E-2,6.953508854E-3,2.515613175E-1
9.725451250E0,1.848842994E-1,-4.536114587E-3,-2.099910557E-2,1.861282970E-1
9.735380250E0,1.825014129E-1,1.094699635E-1,-1.720671844E-1,2.736741759E-1
9.745309250E0,2.998747106E-1,1.070790096E-1,2.560922581E-1,4.086245232E-1
9.755238250E0,1.709897436E-1,1.666248885E-1,-4.136501616E-1,4.776063254E-1
9.765167250E0,2.399100705E-1,-1.130467510E-1,4.191132152E-1,4.959761053E-1
9.775096250E0,2.754092842E-1,-3.685572202E-2,1.464657354E-1,3.141032151E-1
9.785025250E0,1.422465308E-1,-9.839849817E-3,4.870309639E-1,5.074741944E-1
9.794954250E0,1.056682318E-1,4.144441587E-2,3.377293289E-1,3.562927369E-1
9.804883250E0,1.842004858E-1,1.331977453E-2,3.488366997E-1,3.947078394E-1
9.814812250E0,1.256744984E-1,7.238612694E-2,2.274537653E-1,2.697573841E-1
9.824741250E0,1.242418026E-1,-8.721082860E-2,-9.608448815E-1,9.727613482E-1
9.834670250E0,2.223054929E-1,-7.611221029E-2,-2.080047566E-1,3.138132876E-1
9.844599250E0,2.792630196E-1,5.927016442E-2,1.309057099E-1,3.140654253E-1
9.854528250E0,2.321118034E-1,-6.422924283E-2,-7.544136107E-1,7.919224589E-1
9.864457250E0,3.635807098E-1,-3.661961328E-2,9.507572651E-4,3.654214451E-1
9.874386250E0,4.367889827E-1,5.565492234E-2,2.220298880E-1,4.931321901E-1
9.884315250E0,2.977601381E-1,2.057171065E-2,-5.010490787E-1,5.832104889E-1
9.894244250E0,2.809794332E-1,-1.002960476E-1,2.042970371E-1,3.615881890E-1
9.904173250E0,2.589461013E-1,-1.877739203E-2,3.802035034E-2,2.623951617E-1
9.914102250E0,1.639407607E-1,-5.502902359E-2,-1.176167428E-1,2.091374300E-1
9.924031250E0,5.496287696E-2,6.024617434E-2,1.892732012E-1,2.060943087E-1
9.933960250E0,1.539213374E-1,1.589865976E-1,-5.865295243E-1,6.268854754E-1
9.943889250E0,9.315126166E-2,-7.263090600E-2,-8.485344869E-1,8.567165117E-1
9.953818250E0,2.297437542E-1,-1.949007443E-1,-1.560241789E-1,3.392816486E-1
9.963747250E0,2.067874394E-1,4.257631805E-3,-7.049718940E-1,7.346866978E-1
9.973676250E0,2.019528153E-1,-3.154426664E-2,3.267505968E-1,3.854165705E-1
9.983605250E0,4.493820579E-1,2.045003192E-1,2.662728453E-1,5.609508380E-1
9.993534250E0,2.323051636E-1,8.232379884E-2,-8.480368888E-1,8.831248279E-1
1.000346325E1,3.491342134E-1,-8.479452155E-2,6.760632598E-1,7.656019469E-1
1.001339225E1,4.661550884E-1,9.203013115E-2,-2.888027519E-1,5.560369961E-1
1.002332125E1,2.945118271E-2,4.876652772E-2,-3.149386364E-1,3.200498260E-1
1.003325025E1,1.409236713E-1,6.514645169E-2,2.725884229E-1,3.137004775E-1
1.004317925E1,5.333917826E-2,1.282010254E-1,-2.747782052E-1,3.078695063E-1
1.005310825E1,-4.692215145E-2,2.110004313E-3,-3.515182328E-1,3.546423669E-1
1.006303725E1,1.061748747E-1,-3.170892972E-2,-9.486522675E-2,1.458697072E-1
1.007296625E1,1.125021833E-1,6.894155961E-2,1.442250824E-1,1.954752012E-1
1.008289525E1,2.381437180E-1,3.902337623E-2,-5.378268957E-1,5.894853892E-1
1.009282425E1,2.683538693E-1,-8.793993071E-3,9.140484452E-2,2.836300039E-1
1.010275325E1,2.044981083E-1,-1.028720932E-1,4.238693404E-1,4.817337040E-1
1.011268225E1,3.595282239E-1,1.251733555E-1,-2.148150086E-1,4.371205791E-1
1.012261125E1,9.466474034E-2,2.054588789E-1,6.399233741E-1,6.787316765E-1
1.013254025E1,1.914375481E-1,4.656083920E-2,2.225888819E-1,2.972575599E-1
1.014246925E1,1.370527050E-1,8.633388329E-2,1.058346033E-1,1.934888798E-1
1.015239825E1,2.092645392E-2,-5.114192253E-2,-1.189540011E-1,1.311619880E-1
1.016232625E1,1.618561552E-1,-3.864697999E-2,-1.356185657E-1,2.146704437E-1
1.017225525E1,3.515748046E-2,6.660085523E-2,1.583355832E-1,1.753336227E-1
1.018218425E1,2.086387775E-1,6.249176097E-2,1.826377809E-1,2.842391927E-1
1.019211325E1,1.844702983E-1,6.731590575E-2,1.171314240E-2,1.967178686E-1
1.020204225E1,2.880042781E-1,-9.169511310E-2,3.895578790E-1,4.930616584E-1
1.021196742E1,3.414546631E-1,-6.878257929E-2,4.994796860E-1,6.089353717E-1
1.022189642E1,3.198059318E-1,3.123705028E-2,5.092457056E-2,3.253381306E-1
1.023182542E1,2.402374963E-1,4.998396370E-2,3.634787124E-1,4.385535608E-1
1.024175442E1,1.665868816E-1,7.682904239E-2,5.747228265E-1,6.032911554E-1
1.025168342E1,9.004843667E-2,-1.672663646E-2,2.614184868E-1,2.769984234E-1
1.026161242E1,-1.023902278E-2,-1.202674136E-1,3.020589745E-1,3.252825117E-1
1.027154142E1,1.953835050E-1,-1.913212251E-1,-1.596582234E-2,2.739223114E-1
1.028147042E1,1.123307503E-1,-2.216482841E-1,3.002621251E-1,3.897479995E-1
1.029139942E1,1.840454615E-1,-3.009531564E-1,4.502765357E-2,3.556304597E-1
1.030132842E1,2.668424737E-1,-1.251393868E-1,5.757694781E-1,6.468193440E-1
1.031125742E1,2.145698641E-1,-1.820532055E-1,7.159056026E-1,7.692232628E-1
1.032118642E1,2.159934053E-1,-1.810768119E-1,-7.903389037E-2,2.927256715E-1
1.033111542E1,2.073453368E-1,-2.136902602E-1,6.345258093E-1,7.009127040E-1
1.034104442E1,1.870858675E-1,-2.166964234E-1,4.877957797E-1,5.655998448E-1
1.035097342E1,5.350439865E-2,-2.886329634E-1,-2.478494382E-1,3.841888237E-1
1.036090242E1,1.388941393E-1,-3.961811298E-1,7.954569715E-1,8.994458645E-1
1.037083142E1,1.892543074E-1,-2.689180891E-1,9.286547899E-2,3.416988860E-1
1.038076042E1,-4.105366655E-3,-4.032968623E-1,4.076702142E-1,5.734633526E-1
1.039068942E1,1.591147247E-1,-2.194562726E-1,-1.082278687E-1,2.918763827E-1
1.040061842E1,5.049063407E-2,-2.616442990E-1,1.114267634E0,1.145687306E0
1.041054742E1,2.385914320E-1,-2.409435841E-1,2.940184683E-1,4.488056838E-1
1.042047642E1,1.386443171E-1,-3.537284438E-1,1.871576786E-1,4.235257433E-1
1.043040542E1,2.286049724E-1,-3.019349039E-1,3.524023318E-1,5.173125971E-1
1.044033442E1,1.236770164E-1,-3.751164988E-1,2.757780790E-2,3.959405607E-1
1.045026342E1,1.092654571E-1,-3.926591325E-1,-3.092884719E-2,4.087502025E-1
1.046019242E1,-4.447648041E-2,-2.632037880E-1,4.603179592E-1,5.321156029E-1
1.047012142E1,-2.581728436E-3,-4.502563994E-1,2.880478764E-1,5.345176046E-1
1.048005042E1,-3.801362604E-2,-3.215295448E-1,5.044463110E-1,5.994100138E-1
1.048997942E1,-3.711384919E-2,-3.665484641E-1,-2.963374740E-1,4.728119212E-1
1.049990842E1,-6.279295653E-2,-3.895246229E-1,1.096715462E-1,4.095121919E-1
1.050983742E1,1.754210743E-1,-3.799290497E-1,6.317746943E-1,7.577980605E-1
1.051976642E1,8.611231036E-2,-3.021667825E-1,-2.533165848E-1,4.035955731E-1
1.052969542E1,9.758754417E-2,-3.261702606E-1,-8.099738538E-2,3.499584891E-1
1.053962442E1,2.161544961E-1,-3.282089654E-1,3.483870488E-1,5.251832318E-1
1.054955342E1,1.334663152E-1,-3.264879106E-1,-2.876631296E-1,4.551457889E-1
1.055948242E1,1.674122526E-1,-4.651295599E-1,-4.872204137E-1,6.940865229E-1
1.056941142E1,9.920660164E-2,-3.746888116E-1,3.785195053E-2,3.894437385E-1
1.057934042E1,1.837904133E-2,-3.104808654E-1,6.506372273E-2,3.177568960E-1
1.058926942E1,-7.955904342E-2,-3.841045098E-1,3.333176047E-1,5.147490082E-1
1.059919842E1,6.724955812E-3,-2.583201752E-1,1.728454489E-1,3.108859712E-1
1.060912742E1,-8.576436449E-2,-3.949892114E-1,-2.572774887E-5,4.041930282E-1
1.061905642E1,5.606979143E-2,-5.071028472E-1,-1.437029260E-1,5.300449511E-1
1.062898542E1,9.639354274E-2,-4.137032982E-1,-5.472064143E-1,6.927315453E-1
1.063891442E1,7.386966605E-2,-3.094663004E-1,-1.976452446E-1,3.745527484E-1
1.064884342E1,5.364246603E-2,-2.731480745E-1,-1.558540249E-1,3.190264281E-1
1.065877242E1,-3.095325932E-2,-2.444588023E-1,4.800037801E-2,2.510423203E-1
1.066870142E1,4.795360029E-2,-1.884370859E-1,-7.437658310E-4,1.944444299E-1
1.067863042E1,-4.949485324E-3,-2.714053119E-1,-1.999853003E-1,3.371638490E-1
1.068855942E1,3.098249540E-2,-3.009040763E-1,1.814706767E-1,3.527531497E-1
1.069848842E1,6.195198074E-2,-2.597682929E-1,-3.714502215E-1,4.574853889E-1
1.070841742E1,-1.386630647E-2,-3.155792720E-1,-4.823134303E-2,3.195446977E-1
1.071834642E1,1.979764894E-2,-3.209151852E-1,-1.020713353E-1,3.373381990E-1
1.072827542E1,-1.798319945E-1,-2.057824126E-1,-2.030562580E-2,2.740406284E-1
1.073820442E1,-1.422633781E-1,-2.367793799E-1,2.919397831E-2,2.777690261E-1
1.074813342E1,-1.803770646E-1,-2.688261416E-1,-1.319915378E-1,3.496071308E-1
1.075806242E1,-2.549478118E-1,-2.789117481E-1,-1.106527090E-2,3.780378158E-1
1.076799142E1,-2.133183407E-1,-2.772294859E-1,-2.147951281E-1,4.104848954E-1
1.077792042E1,-3.071049754E-1,-1.734159178E-1,-1.704305488E-1,3.917053975E-1
1.078784942E1,-2.755590643E-1,-2.529827636E-1,3.070419717E-1,4.839502546E-1
1.079777842E1,-2.442971816E-1,-2.690728941E-1,5.245537162E-3,3.634678128E-1
1.080770742E1,-2.982805768E-1,-3.057584530E-1,-4.654582465E-1,6.317522563E-1
1.081763642E1,-2.764664790E-1,-2.866506842E-1,6.922875291E-1,7.986641044E-1
1.082756542E1,-2.024829385E-1,-2.538295866E-1,-2.174573654E-1,3.907895920E-1
1.083749442E1,-3.566243870E-1,-1.095236573E-1,-4.146365869E-1,5.577632868E-1
1.084742342E1,-1.454303397E-1,-7.686473781E-2,5.946127152E-1,6.169460696E-1
1.085735242E1,-2.452355501E-1,2.720975309E-2,-3.058239967E-1,3.929493130E-1
1.086728142E1,-3.584342464E-1,-3.288601077E-2,-6.532275438E-2,3.658191643E-1
1.087721042E1,-5.753484786E-2,-1.098272923E-1,1.878757167E-1,2.250990399E-1
1.088713942E1,-2.616956083E-1,-1.017026410E-1,3.508083808E-1,4.493267616E-1
1.089706842E1,-1.155930215E-1,-9.857417045E-2,-4.375085557E-1,4.631331882E-1
1.090699742E1,-2.891527078E-1,-3.092902992E-2,-1.719958484E-2,2.913103483E-1
1.091692642E1,-2.605997305E-1,3.006064530E-2,4.322402143E-1,5.056159262E-1
1.092685542E1,-2.985838646E-1,8.219389016E-2,-1.180219549E-1,3.314171716E-1
1.093678442E1,-3.775239072E-1,1.642171147E-1,2.268181729E-1,4.700404715E-1
1.094671342E1,-2.263732729E-1,5.540804193E-2,1.670368248E-1,2.867336929E-1
1.095664242E1,-2.160905787E-1,5.170203097E-2,3.186147809E-2,2.244624512E-1
1.096657142E1,-1.383442087E-1,-5.313839950E-3,-3.745843291E-1,3.993504434E-1
1.097650042E1,-7.569768839E-2,1.876816439E-2,-3.459972918E-1,3.546780370E-1
1.098642942E1,-1.211927172E-1,-9.152491344E-3,4.360385656E-2,1.291229612E-1
1.099635842E1,-1.426358092E-1,-7.717683295E-2,2.746367025E-1,3.189460079E-1
1.100628742E1,-1.918490459E-1,-3.665620406E-2,-3.136692059E-1,3.695106283E-1
1.101621642E1,-1.885767978E-1,-1.780882817E-2,7.063424814E-1,7.312988883E-1
1.102614442E1,-2.973396137E-1,-2.399552951E-2,-2.221474171E-2,2.991322885E-1
1.103607442E1,-1.835545147E-1,6.077226844E-2,-2.596602291E-1,3.237421243E-1
1.104600242E1,-2.043210838E-1,-3.260798480E-2,-6.565663040E-2,2.170741327E-1
1.105593242E1,-1.307783502E-1,-1.669356680E-1,-1.213548678E-1,2.443307145E-1
1.106586042E1,-1.698268238E-1,-1.791105577E-1,-6.123017120E-1,6.601781036E-1
1.107578942E1,-2.436637089E-1,-2.114051683E-1,1.120151103E-1,3.414843087E-1
1.108571842E1,-1.217723590E-1,-4.401505287E-2,-1.268816561E-1,1.812864775E-1
1.109564742E1,-3.032084275E-1,2.183396920E-2,2.152430248E-1,3.724803786E-1
1.110557642E1,-1.305996812E-1,5.354916640E-3,-6.375213379E-1,6.507829193E-1
1.111550542E1,-1.367714173E-1,-1.707069211E-1,3.613269371E-1,4.223794845E-1
1.112543442E1,-3.797053937E-2,-1.799887729E-1,-1.163508207E-1,2.176585255E-1
1.113536342E1,-1.878647897E-1,-1.314835975E-1,-3.368218410E-1,4.074678738E-1
1.114529242E1,-1.125774297E-1,-1.512548791E-1,2.304726827E-1,2.977740311E-1
1.115522142E1,-1.469875263E-1,-1.234370796E-1,-1.149083126E-1,2.237095568E-1
1.116515042E1,-2.785406692E-1,-2.189827760E-1,-6.058650970E-1,7.018624341E-1
1.117507942E1,-1.594772886E-1,-2.217293777E-1,-4.220882785E-1,5.027478865E-1
1.118500842E1,-2.221788824E-1,-1.690776858E-1,-1.367628658E-1,3.108935527E-1
1.119493742E1,-1.358001583E-1,-1.917772531E-1,-9.066107869E-2,2.518722473E-1
1.120486642E1,-1.654781399E-1,-1.519109185E-1,9.941436052E-3,2.248527831E-1
1.121479592E1,-2.384894712E-1,-1.919193952E-1,-8.826547444E-2,3.185923353E-1
1.122472492E1,-1.598439090E-1,-2.340129160E-1,1.143879104E-1,3.056087599E-1
1.123465392E1,-2.603856858E-1,-2.121865025E-1,-3.219418466E-2,3.374318935E-1
1.124458292E1,-2.207809959E-1,-1.756958203E-1,-3.088809210E-1,4.183547451E-1
1.125451192E1,-2.689779134E-1,-2.634365985E-1,-1.267471701E-1,3.972565978E-1
1.126444092E1,-2.663448026E-1,-1.610219768E-1,-2.591409963E-1,4.049959097E-1
1.127436992E1,-2.733850695E-1,-1.323894043E-1,-2.491323173E-2,3.047737188E-1
1.128429892E1,-2.617263062E-1,-7.510461627E-2,-2.570436001E-2,2.734996835E-1
1.129422792E1,-3.026331711E-1,-8.002883065E-2,1.470656598E-1,3.458608944E-1
1.130415692E1,-1.527555488E-1,-1.200165681E-1,-2.451702440E-1,3.128045441E-1
1.131408592E1,-2.666026465E-1,-1.081709131E-1,-1.172559696E-1,3.106877532E-1
1.132401492E1,-1.248276388E-1,-1.874548816E-1,3.337122917E-2,2.276728157E-1
1.133394392E1,-2.233492026E-1,-3.277313210E-2,1.374095678E-4,2.257409209E-1
1.134387292E1,-2.761151527E-1,3.035837822E-3,-1.444133627E-1,3.116151685E-1
1.135380192E1,-2.568152663E-1,-7.117623752E-2,4.675076956E-1,5.381297085E-1
1.136373092E1,-2.995495505E-1,-2.380047005E-2,-7.791648746E-2,3.104309498E-1
1.137365992E1,-3.495122724E-1,-9.567111924E-2,-1.371663237E-1,3.874614716E-1
1.138358892E1,-1.851842616E-1,-1.247825056E-1,3.491664827E-2,2.260156118E-1
1.139351792E1,-2.405992928E-1,-4.879035512E-2,8.570614815E-2,2.600270414E-1
1.140344692E1,-2.819480427E-1,-1.397605140E-1,3.652638674E-1,4.821259098E-1
1.141337592E1,-1.736017497E-1,2.517591789E-4,5.143620193E-2,1.810616297E-1
1.142330492E1,-2.537000343E-1,-6.520769214E-2,2.770714831E-1,3.812930071E-1
1.143323392E1,-1.698222008E-1,-1.182384663E-1,3.788960660E-1,4.317199829E-1
1.144316292E1,-1.370093990E-1,-1.342165495E-1,-5.381718814E-2,1.992032814E-1
1.145309192E1,-8.548704201E-2,-1.699952784E-1,-3.433485031E-2,1.933528148E-1
1.146302092E1,-9.833691968E-2,-1.569803083E-1,3.148164296E-1,3.652702442E-1
1.147294992E1,-7.544792091E-2,-9.673301015E-2,1.249316096E-1,1.750930356E-1
1.148287892E1,-1.417618880E-1,-1.860303720E-1,3.336602515E-1,4.074713433E-1
1.149280792E1,-5.385139436E-3,-1.814087144E-1,2.652098215E-1,3.213633003E-1
1.150273692E1,-2.344401647E-1,-2.269378764E-1,6.197732842E-1,7.004155298E-1
1.151266592E1,3.426895950E-2,-1.534951119E-1,1.549401051E-1,2.207748788E-1
1.152259492E1,-1.966243573E-1,-1.694612449E-1,2.523792762E-1,3.620408132E-1
1.153252392E1,-6.189475112E-2,-2.016124891E-1,4.349708641E-1,4.834027395E-1
1.154245292E1,-1.028424369E-1,-1.997913189E-1,1.073045933E-1,2.490128786E-1
1.155238192E1,-2.451699882E-1,-1.687450158E-1,5.650304818E-1,6.386255936E-1
1.156231092E1,-4.610662932E-2,-1.321108027E-1,2.823877716E-1,3.151538339E-1
1.157223992E1,-2.285609538E-1,-2.303782867E-1,1.442209893E-1,3.551252714E-1
1.158216892E1,-1.124024335E-1,-2.471907128E-1,1.691815835E-1,3.199374372E-1
1.159209792E1,-5.755874835E-2,-2.513807544E-1,1.872974271E-1,3.187249902E-1
1.160202692E1,-1.674295567E-1,-1.726816172E-1,3.800736952E-1,4.497861838E-1
1.161195592E1,-1.059826292E-1,-2.258423457E-1,5.809261376E-1,6.322280128E-1
1.162188492E1,-2.082327249E-1,-1.377235999E-1,1.712205076E-1,3.027294500E-1
1.163181292E1,-2.126604010E-1,-1.973342275E-1,3.976615351E-1,4.922397181E-1
1.164174192E1,-2.173794695E-1,-1.850743705E-1,4.337107891E-1,5.192411819E-1
1.165167092E1,-1.886972322E-1,-1.947503247E-1,-7.136877537E-2,2.804065557E-1
1.166159992E1,-1.749967126E-1,-2.107256487E-1,-1.697318065E-1,3.222390954E-1
1.167152892E1,-1.476857387E-1,-1.696631931E-1,3.039792001E-2,2.269817395E-1
1.168145792E1,-1.041392214E-1,-7.217528913E-2,3.077401292E-1,3.328036011E-1
1.169138692E1,-1.707213199E-1,-3.332401291E-3,1.527935922E-1,2.291347983E-1
1.170131592E1,-8.564338194E-2,8.242673725E-2,3.153216290E-1,3.369817289E-1
1.171124492E1,-9.812082851E-2,-1.797889078E-2,5.300582850E-1,5.393632570E-1
1.172117392E1,-5.924471989E-2,-1.837204294E-2,-3.941496974E-1,3.990005674E-1
1.173110292E1,-6.637238441E-2,-9.237804048E-2,2.254452467E-2,1.159622842E-1
1.174103192E1,-2.514752235E-2,-2.943786202E-2,-1.107199520E-1,1.172940466E-1
1.175096092E1,-1.001698025E-1,8.858115099E-2,-1.125495458E-1,1.747798899E-1
1.176088992E1,-1.112325883E-1,8.500382446E-2,4.998375356E-2,1.486496367E-1
1.177081892E1,-9.288570670E-2,-9.647449013E-3,-6.323588312E-2,1.127812249E-1
1.178074792E1,-7.608618105E-2,-7.069373259E-2,-3.346343976E-1,3.503810652E-1
1.179067692E1,-1.310702359E-1,-9.722721864E-2,-2.523243123E-1,3.004997460E-1
1.180060592E1,-8.266161259E-2,-9.916000664E-2,-1.985878158E-1,2.368602324E-1
1.181053492E1,-9.703883780E-2,7.623616213E-2,3.445939600E-2,1.281246988E-1
1.182046392E1,-1.113248464E-1,-1.055614378E-1,1.124314320E-1,1.902032216E-1
1.183039292E1,-1.366378633E-1,3.363070850E-2,-1.332288086E-1,1.937804058E-1
1.184032192E1,-9.803609870E-2,-1.567157583E-1,-3.746194124E-2,1.886115123E-1
1.185025092E1,-1.312605262E-1,-8.412256683E-2,-2.294038117E-1,2.773662575E-1
1.186017992E1,-8.756506937E-2,-1.777194685E-1,-6.096043915E-1,6.409909242E-1
1.187010892E1,-2.958663711E-2,-6.514511780E-2,2.052665055E-2,7.443519901E-2
1.188003792E1,-9.575670786E-2,-3.290328747E-3,-4.929185253E-1,5.021442482E-1
1.188996692E1,-3.917013220E-2,-1.059487245E-1,-4.863252050E-1,4.992711052E-1
1.189989592E1,-5.865912125E-2,-1.502667088E-1,3.225511265E-1,3.606386079E-1
1.190982492E1,-2.562701231E-2,-1.544690022E-1,-2.498754984E-1,2.948816392E-1
1.191975392E1,-8.683325378E-2,-5.627572306E-2,-1.252473593E-2,1.042297461E-1
1.192968292E1,-3.344855860E-2,-9.857282742E-2,-4.821058542E-1,4.932154326E-1
1.193961192E1,-1.213769593E-1,-8.030483751E-2,6.211497188E-2,1.582387529E-1
1.194954092E1,5.201412611E-2,-1.228496537E-1,-6.313846850E-1,6.453248230E-1
1.195946992E1,-1.095678495E-1,-1.106545180E-1,-1.348777235E-1,2.060134371E-1
1.196939892E1,2.370590961E-2,-1.252806884E-1,-8.250889063E-2,1.518714525E-1
1.197932792E1,-1.044750709E-1,-1.567849747E-1,-3.242684537E-1,3.750287973E-1
1.198925692E1,-2.469416214E-2,-1.632961782E-1,-2.452485967E-1,2.956726528E-1
1.199918592E1,-3.240716949E-2,-2.044574336E-1,-3.392689008E-1,3.974373583E-1
1.200911492E1,-3.967096450E-2,-2.623781611E-1,-2.012582392E-1,3.330479900E-1
1.201904392E1,-5.145376185E-2,-2.191834452E-1,-2.539855063E-2,2.265699862E-1
1.202897292E1,-5.886161763E-2,-2.676583430E-1,-2.001034141E-2,2.747837193E-1
1.203890192E1,-1.066286917E-1,-1.321482341E-1,1.948701560E-2,1.709168729E-1
1.204883092E1,-1.057929419E-2,-2.140907579E-1,2.330659229E-1,3.166488567E-1
1.205875992E1,-1.097036145E-1,-1.182573967E-1,-1.015216970E-1,1.905947268E-1
1.206868892E1,1.962279892E-2,-2.094488727E-1,-1.635214788E-1,2.664454138E-1
1.207861792E1,1.704684461E-2,-2.139927805E-1,-2.891284418E-1,3.601093735E-1
1.208854692E1,-5.299355300E-2,-2.799307716E-1,-1.455898225E-1,3.199467924E-1
1.209847592E1,6.787517365E-2,-1.845082138E-1,-2.362333596E-2,1.980110658E-1
1.210840392E1,-1.342009813E-1,-1.941526661E-1,1.818583471E-1,2.979557342E-1
1.211833292E1,-1.883580023E-2,-1.081523117E-1,2.572383124E-1,2.796842134E-1
1.212826192E1,-1.255062996E-1,-1.562472501E-1,2.277180594E-1,3.033488899E-1
1.213819092E1,-8.347382739E-2,-1.089115818E-1,-1.131670117E-1,1.778661999E-1
1.214811992E1,-8.144104287E-2,-1.098520973E-1,2.138829625E-1,2.538622626E-1
1.215804892E1,-2.933146097E-2,-1.119956409E-1,-7.292413473E-2,1.368257563E-1
1.216797792E1,-1.120725591E-1,-2.128296048E-2,8.989860177E-2,1.452411151E-1
1.217790692E1,-6.729887573E-2,-2.784514443E-2,2.624844342E-1,2.724014849E-1
1.218783592E1,-8.252252195E-2,-7.514026601E-2,-6.000295758E-2,1.267137764E-1
1.219776492E1,-1.036860622E-1,-9.858405590E-2,2.121054089E-1,2.558482364E-1
1.220769392E1,-8.265545474E-2,-1.275682197E-1,-1.398636442E-1,2.065609204E-1
1.221762250E1,-1.315866912E-1,-4.298156664E-2,-2.192998230E-2,1.401549018E-1
1.222755150E1,-8.375465820E-2,2.005335499E-2,5.014911282E-1,5.088323216E-1
1.223748050E1,-1.098522435E-1,4.256455053E-2,3.466884327E-1,3.661586073E-1
1.224740950E1,-2.155038472E-1,7.669887789E-2,3.007690787E-2,2.307146428E-1
1.225733850E1,-5.867786888E-2,2.704181923E-2,5.388355404E-1,5.426952109E-1
1.226726750E1,-1.882206476E-1,1.696239802E-2,2.130976814E-1,2.848251340E-1
1.227719650E1,-1.598420270E-1,4.550150645E-2,-7.282707095E-3,1.663517313E-1
1.228712550E1,-1.321268826E-1,8.437830029E-2,-1.284107029E-2,1.572962293E-1
1.229705450E1,-1.432738683E-1,-1.570921180E-2,1.688395214E-1,2.219931636E-1
1.230698350E1,-1.251462755E-1,1.151809024E-1,-1.476141286E-1,2.252069305E-1
1.231691250E1,-1.457797291E-1,4.745014588E-2,2.120627242E-1,2.616750748E-1
1.232684150E1,-1.212168553E-1,1.494285379E-1,1.633782220E-1,2.524180210E-1
1.233677050E1,-1.130505973E-1,1.358694295E-1,3.658795792E-1,4.063358290E-1
1.234669950E1,-9.500976261E-2,1.996705008E-1,-1.177886510E-1,2.505380813E-1
1.235662850E1,-1.582052817E-1,9.582006793E-2,2.544544530E-1,3.145750550E-1
1.236655750E1,-1.709000437E-2,4.519467381E-2,7.645702243E-2,9.044502788E-2
1.237648650E1,-1.792416815E-1,1.760686351E-1,7.343985915E-2,2.617654629E-1
1.238641550E1,-1.700840830E-1,1.815212185E-1,1.865916681E-1,3.109581944E-1
1.239634450E1,-1.203746369E-1,1.562297085E-1,7.159974039E-2,2.098196794E-1
1.240627350E1,-1.955845762E-1,1.817597667E-1,3.280638814E-2,2.690096621E-1
1.241620250E1,-1.158491844E-1,1.085813329E-1,-4.039964086E-1,4.340783772E-1
1.242613150E1,-7.798332844E-2,7.321413836E-2,2.021323979E-2,1.088590126E-1
1.243606050E1,-5.998223651E-2,1.840034529E-1,1.519054002E-1,2.460292462E-1
1.244598950E1,-7.977692530E-2,1.891744564E-1,1.655311668E-1,2.637269420E-1
1.245591850E1,-9.301525908E-2,1.825765679E-1,9.155102491E-2,2.244273417E-1
1.246584750E1,-8.580606245E-3,1.529565285E-1,2.316210759E-1,2.777006468E-1
1.247577650E1,-4.272008646E-2,1.310555082E-1,1.226278067E-1,1.844942573E-1
1.248570550E1,-8.830792157E-2,2.465857818E-1,-5.419725716E-2,2.674699600E-1
1.249563450E1,1.595330564E-2,2.095853503E-1,-1.643880361E-1,2.668406893E-1
1.250556250E1,-1.028680002E-1,1.645121798E-1,-1.105170536E-1,2.232937570E-1
1.251549150E1,-4.459101275E-2,1.534488824E-1,-4.235155839E-1,4.526592181E-1
1.252542050E1,-4.658091160E-2,9.678537014E-2,-1.214460844E-1,1.621306282E-1
1.253534950E1,-3.302487301E-2,1.417995568E-1,7.344102859E-2,1.630685170E-1
1.254527850E1,-2.564345760E-2,1.908118960E-1,1.652054769E-1,2.536919710E-1
1.255520750E1,-5.044774840E-2,1.106783728E-1,-1.114222026E-1,1.649532805E-1
1.256513650E1,-2.725637550E-2,4.909017110E-2,-4.706014574E-2,7.326262499E-2
1.257506550E1,2.219208375E-2,6.589382635E-2,3.403395259E-1,3.473693680E-1
1.258499450E1,-6.778695378E-2,1.355778727E-1,-9.512542784E-2,1.789560776E-1
1.259492350E1,-1.291721566E-1,1.392189979E-1,-4.034052551E-2,1.941513157E-1
1.260485250E1,-9.972923309E-2,6.555650597E-2,1.458646417E-2,1.202345223E-1
1.261478150E1,-1.998516914E-1,1.226936335E-1,-9.764850140E-5,2.345089248E-1
1.262471050E1,-1.518962091E-1,6.978498392E-2,-3.710309762E-1,4.069476472E-1
1.263463950E1,-1.322683487E-1,-7.685553758E-2,-3.090580916E-1,3.448457535E-1
1.264456850E1,-2.310781254E-2,-2.557920218E-2,1.694523096E-3,3.451286707E-2
1.265449750E1,-2.259291038E-3,5.496802068E-2,2.587042093E-1,2.644890463E-1
1.266442650E1,-1.268030841E-2,4.337597961E-2,-3.373539376E-1,3.403673678E-1
1.267435550E1,3.387818277E-2,6.511960932E-2,2.995347315E-1,3.083980385E-1
1.268428450E1,1.707915047E-1,6.767619473E-2,1.230166465E-1,2.210947777E-1
1.269421350E1,-4.159990612E-2,-1.134305933E-2,-1.593424737E-1,1.650734416E-1
1.270414250E1,4.983181732E-2,-1.020236622E-1,-2.571318930E-1,2.810851261E-1
1.271407150E1,-6.156058274E-3,-8.466363528E-2,-2.486423206E-1,2.627333854E-1
1.272400050E1,-8.827035321E-2,-9.520912525E-2,-4.335125685E-1,4.525368270E-1
1.273392950E1,1.762423888E-3,-1.100488469E-1,-1.670806789E-1,2.000745064E-1
1.274385850E1,-6.174763883E-2,-1.266222315E-1,-2.221637893E-1,2.630640790E-1
1.275378750E1,-2.312449537E-2,-1.399645818E-1,1.264448690E-1,1.900345530E-1
1.276371650E1,-1.930915061E-3,-2.158086881E-1,-3.749889565E-1,4.326590294E-1
1.277364550E1,-5.112628123E-2,-2.776488591E-1,-1.754632473E-1,3.324005667E-1
1.278357450E1,1.756573018E-2,-2.191242421E-1,2.547263485E-1,3.364661959E-1
1.279350350E1,-8.187998604E-2,-1.214258932E-1,-2.203926677E-1,2.646157735E-1
1.280343250E1,-8.330851564E-2,-1.087108030E-1,3.824429870E-2,1.422004706E-1
1.281336150E1,-3.859092895E-2,-1.627002373E-1,2.732333708E-1,3.203390422E-1
1.282329050E1,-1.103462601E-1,-1.778587419E-1,-1.417283213E-1,2.527784529E-1
1.283321950E1,-5.846468305E-2,-2.971215856E-1,-3.736084288E-1,4.809185107E-1
1.284314850E1,-1.800136602E-2,-2.576912340E-1,-1.827623266E-1,3.164346525E-1
1.285307750E1,-1.669345351E-2,-2.476987262E-1,-8.952321053E-2,2.639085743E-1
1.286300650E1,-6.718860090E-2,-6.370966290E-2,2.393423241E-1,2.566280915E-1
1.287293550E1,-9.229464456E-4,-1.290089827E-1,2.038491404E-1,2.412439460E-1
1.288286350E1,-6.499602294E-2,-1.310637857E-1,4.309123117E-1,4.550688072E-1
1.289279250E1,2.841306439E-2,-1.430344614E-1,4.141302180E-1,4.390558015E-1
1.290272150E1,-4.965397060E-2,-9.377981907E-2,2.602309173E-1,2.810343424E-1
1.291265050E1,1.227882396E-2,-1.382003124E-1,9.121714890E-2,1.660441631E-1
1.292257950E1,1.465257425E-3,-7.211595360E-2,9.645157635E-2,1.204398785E-1
1.293250850E1,-8.357476495E-2,-1.385353578E-1,2.118545634E-1,2.665692081E-1
1.294243750E1,-2.160060134E-2,-9.347538013E-2,1.530216336E-1,1.806096704E-1
1.295236650E1,-1.220944858E-1,-1.776868338E-1,5.938519925E-1,6.317751683E-1
1.296229550E1,-9.197578859E-3,-9.167087456E-2,2.161815029E-1,2.349948657E-1
1.297222450E1,-1.055759371E-1,-8.760846667E-2,4.830776614E-1,5.021807930E-1
1.298215350E1,2.033953965E-3,-1.741837669E-1,4.375693667E-1,4.709682285E-1
1.299208250E1,-4.671607364E-2,-3.254141334E-2,4.464121109E-1,4.500278968E-1
1.300201150E1,3.518315339E-2,-4.467092774E-2,5.537389237E-1,5.566508256E-1
1.301194050E1,-3.826951481E-2,2.923440176E-2,2.982261246E-1,3.020894361E-1
1.302186950E1,-4.984360311E-2,3.659045943E-3,5.708098698E-1,5.729936132E-1
1.303179850E1,-6.549298145E-2,-4.603596023E-2,5.951968521E-1,6.005563529E-1
1.304172750E1,-1.429551220E-1,-6.516339035E-2,1.078255802E-1,1.905486555E-1
1.305165650E1,-1.741758914E-1,-8.438009100E-2,5.012075382E-1,5.372766860E-1
1.306158550E1,-7.938561866E-2,-7.678804792E-2,2.721913970E-1,2.937458720E-1
1.307151450E1,-1.812203793E-1,-3.191213873E-3,4.043776470E-1,4.431391329E-1
1.308144350E1,-1.550292934E-1,4.626611669E-2,7.169393903E-1,7.349671589E-1
1.309137250E1,-1.187103366E-1,1.846745488E-1,6.527258527E-1,6.886565703E-1
1.310130150E1,-9.532322818E-2,8.534521963E-2,3.696679902E-1,3.911837769E-1
1.311123050E1,-4.810851496E-3,3.646106694E-2,2.521670222E-1,2.548347716E-1
1.312115950E1,-8.784929886E-3,6.642861818E-3,2.762622285E-1,2.764816838E-1
1.313108850E1,1.037253847E-1,1.215331257E-1,-2.025873113E-1,2.580133228E-1
1.314101750E1,-1.300912293E-2,9.150311429E-2,6.282306969E-2,1.117532787E-1
1.315094650E1,-5.361531302E-4,1.762572261E-1,3.099462837E-1,3.565579840E-1
1.316087550E1,-3.897309931E-2,1.025064321E-1,-1.992877275E-1,2.274688317E-1
1.317080450E1,-9.207371118E-2,8.349855929E-2,7.404972374E-2,1.446822010E-1
1.318073350E1,-6.043208839E-2,1.312855231E-1,3.008246273E-1,3.337414902E-1
1.319066250E1,-3.283156771E-3,2.199331679E-1,-1.536309135E-1,2.682980340E-1
1.320059150E1,-7.456289001E-2,1.627174501E-1,-3.028483486E-1,3.517864628E-1
1.321051950E1,3.003539264E-2,1.758580805E-1,5.880661726E-2,1.878467661E-1
1.322044829E1,-8.778476022E-2,2.964094130E-1,-4.345446020E-1,5.332857727E-1
1.323037729E1,-7.753320247E-2,3.368911305E-1,-1.715315795E-1,3.859146461E-1
1.324030629E1,-1.416097142E-1,2.132069695E-1,4.506390631E-2,2.598870498E-1
1.325023529E1,-1.305820847E-1,2.136936406E-1,-4.502619177E-1,5.152207754E-1
1.326016429E1,-1.212732078E-1,1.808801992E-1,-5.402113903E-1,5.824544476E-1
1.327009329E1,-8.664257973E-2,2.499939228E-1,-1.818519151E-1,3.210514244E-1
1.328002229E1,-4.035112359E-2,3.216671006E-1,-6.506588620E-1,7.269490295E-1
1.328995129E1,-1.226450194E-1,3.300559547E-1,-5.937145829E-2,3.570766081E-1
1.329988029E1,-5.914239362E-3,3.063583956E-1,-1.482900667E-1,3.404120866E-1
1.330980929E1,-1.466358894E-1,3.121931129E-1,-3.343478841E-1,4.803697861E-1
1.331973829E1,-3.451794125E-2,3.039710323E-1,-3.574022859E-1,4.704532609E-1
1.332966729E1,-1.026845438E-1,3.399093901E-1,-1.469504696E-1,3.842875870E-1
1.333959629E1,-6.626881560E-2,3.785196880E-1,-4.357041049E-1,5.809533347E-1
1.334952529E1,-3.959866002E-2,2.653035048E-1,-7.843121785E-1,8.289147103E-1
1.335945429E1,-8.283668188E-2,1.994013462E-1,-2.972180647E-1,3.673709170E-1
1.336938329E1,-1.834203942E-2,2.608312071E-1,-4.789360785E-1,5.456639225E-1
1.337931229E1,-1.032661590E-1,2.318730726E-1,-5.063092339E-1,5.663727233E-1
1.338924129E1,-2.269065024E-2,2.600427284E-1,-2.630650628E-1,3.705945405E-1
1.339917029E1,-4.250580428E-2,3.115413310E-1,1.196843183E-1,3.364358488E-1
1.340909929E1,-1.368339825E-3,3.175451790E-1,-6.955040824E-1,7.645670289E-1
1.341902829E1,-8.778265888E-2,2.758947310E-1,-1.720309317E-1,3.367763935E-1
1.342895729E1,1.732374681E-2,1.640323061E-1,3.199304044E-2,1.680186427E-1
1.343888629E1,-1.162475259E-1,1.709561404E-1,-3.528543216E-1,4.089567966E-1
1.344881529E1,-1.307457702E-1,9.591283766E-2,-2.865363711E-1,3.292367246E-1
1.345874429E1,-1.189875860E-1,1.192232653E-1,-2.600373745E-1,3.098252229E-1
1.346867329E1,-1.322345444E-1,2.314581030E-1,-1.440321243E-1,3.029918828E-1
1.347860229E1,-2.057200301E-2,1.590116492E-1,-5.725809914E-1,5.946065116E-1
1.348853129E1,-1.094340214E-1,1.319401554E-1,-3.034278077E-1,3.485002785E-1
1.349846029E1,-7.590161003E-3,1.020013515E-1,-1.782740039E-1,2.055322522E-1
1.350838929E1,-4.301939081E-2,1.413484076E-1,3.134487659E-1,3.465258564E-1
1.351831829E1,-5.636913233E-2,1.249151552E-1,-2.412888622E-1,2.774916037E-1
1.352824629E1,-7.468582772E-2,1.029715142E-1,1.191504675E-1,1.742926834E-1
1.353817529E1,5.293137152E-3,-2.673228225E-3,2.523541331E-1,2.524237944E-1
1.354810429E1,-8.812832069E-3,5.759981590E-2,-2.350428665E-1,2.421581175E-1
1.355803329E1,-1.144508410E-1,2.918241179E-2,-3.444828629E-2,1.230337051E-1
1.356796229E1,-1.621204494E-2,5.324760539E-2,6.178109586E-2,8.315672965E-2
1.357789129E1,-8.052396191E-2,6.927468644E-2,-1.868401748E-1,2.149240367E-1
1.358782029E1,-8.717781924E-2,5.906016715E-2,-4.598074973E-2,1.149012831E-1
1.359774929E1,-7.382296141E-2,1.239021342E-2,8.515007794E-2,1.133749655E-1
1.360767829E1,-7.070027417E-2,1.099436245E-1,3.553306174E-1,3.786105876E-1
1.361760729E1,4.903036505E-3,2.475550309E-2,3.020420176E-1,3.030944656E-1
1.362753629E1,-3.114325728E-2,2.888434083E-2,8.680425525E-2,9.663946579E-2
1.363746529E1,2.804933103E-2,-1.433578307E-2,5.729774326E-1,5.738426770E-1
1.364739429E1,9.926927648E-2,1.170249681E-1,3.249402988E-1,3.593541849E-1
1.365732329E1,-3.892845947E-2,8.919550150E-2,1.819787997E-1,2.063675022E-1
1.366725229E1,8.940136917E-3,1.422484129E-1,2.496275765E-1,2.874516724E-1
1.367718129E1,-5.899838766E-2,2.068012534E-1,4.202633625E-1,4.720898877E-1
1.368711029E1,-3.711573126E-2,2.333039776E-1,2.292552924E-1,3.291903896E-1
1.369703929E1,-3.552302280E-2,2.031732571E-1,3.736312330E-2,2.096121669E-1
1.370696829E1,-1.435014529E-2,2.228751579E-1,2.177473873E-1,3.119185588E-1
1.371689729E1,2.098711878E-2,2.026589214E-1,4.882477695E-1,5.290529104E-1
1.372682629E1,-3.181353092E-2,2.210850876E-1,5.595130491E-1,6.024496401E-1
1.373675529E1,-2.721721742E-2,2.318387385E-1,4.831712168E-1,5.366045121E-1
1.374668429E1,-8.353251882E-2,3.353370137E-1,4.415676928E-1,5.607233023E-1
1.375661329E1,-9.742159288E-2,2.606827792E-1,6.800194860E-1,7.347604912E-1
1.376654229E1,-2.774982568E-2,3.088898380E-1,2.436751109E-1,3.944116435E-1
1.377647129E1,-1.132199839E-1,3.095683343E-1,1.523766857E-1,3.631390542E-1
1.378640029E1,-2.251823047E-2,3.476240237E-1,3.092475414E-1,4.658149573E-1
1.379632929E1,-7.650332507E-2,3.211678214E-1,3.952016115E-2,3.325107087E-1
1.380625829E1,-7.116865441E-3,3.022317232E-1,1.022455823E-1,3.191376245E-1
1.381618729E1,-2.113079583E-2,3.271221508E-1,2.693017030E-1,4.242391063E-1
1.382611629E1,-7.773330515E-2,4.048286135E-1,3.675021815E-1,5.522558524E-1
1.383604429E1,-4.986012150E-2,3.721999077E-1,6.352748376E-1,7.379653937E-1
1.384597329E1,-3.802510120E-2,4.440510418E-1,-3.216617650E-1,5.496303550E-1
1.385590229E1,-1.822825443E-1,3.764538667E-1,6.730104285E-1,7.923935112E-1
1.386583129E1,1.725593738E-2,3.817917533E-1,2.245365894E-1,4.432599579E-1
1.387576029E1,-2.093368254E-1,4.074346810E-1,-3.078892332E-1,5.519245471E-1
1.388568929E1,-8.288038982E-2,4.231514485E-1,2.901166213E-1,5.197056487E-1
1.389561829E1,-9.164781461E-2,4.672917140E-1,1.703668141E-1,5.057526266E-1
1.390554729E1,-2.069899906E-1,4.123642858E-1,-2.089408958E-1,5.065031672E-1
1.391547629E1,-6.922197014E-2,3.855914933E-1,-2.270532310E-1,4.527975823E-1
1.392540529E1,-9.446244495E-2,3.076666370E-1,-1.782383358E-1,3.679005537E-1
1.393533429E1,-2.490901077E-2,3.400410256E-1,-8.514247656E-2,3.514222520E-1
1.394526329E1,-3.570907390E-2,3.746779211E-1,7.458591342E-2,3.836948540E-1
1.395519229E1,1.066484626E-2,4.535001057E-1,-3.164109653E-1,5.530750255E-1
1.396512129E1,-9.678209022E-2,3.469006135E-1,1.298105264E-1,3.828283968E-1
1.397505029E1,2.176524614E-2,2.954096305E-1,1.103369594E-1,3.160930564E-1
1.398497929E1,-9.726171722E-2,3.184815375E-1,-4.339388305E-1,5.469855939E-1
1.399490829E1,2.972304169E-4,2.715378610E-1,-2.984728771E-1,4.035083105E-1
1.400483729E1,-1.877963956E-2,1.797574059E-1,-2.074691516E-1,2.751524100E-1
1.401476629E1,-2.473480029E-2,1.893568530E-1,-5.010069788E-1,5.361677171E-1
1.402469529E1,4.358980497E-2,1.691556365E-1,-6.991837353E-1,7.206744037E-1
1.403462429E1,-4.379370835E-2,1.853087707E-2,-1.565504283E-1,1.636133212E-1
1.404455329E1,2.040848197E-2,6.027530079E-2,-2.218223119E-1,2.307699202E-1
1.405448229E1,-1.418863423E-5,5.303962723E-2,-1.493794030E-1,1.585162714E-1
1.406441129E1,-1.142731405E-2,7.444740750E-2,-4.046086121E-1,4.115593869E-1
1.407434029E1,-1.246058101E-2,2.217867170E-3,-2.462379456E-1,2.465629957E-1
1.408426929E1,2.790379018E-2,-1.875752063E-2,-1.516446143E-1,1.553272518E-1
1.409419829E1,-5.921944896E-2,-7.373414769E-2,-4.098675978E-1,4.206365598E-1
1.410412729E1,-3.849349972E-2,-1.180004298E-1,-4.366572011E-1,4.539552425E-1
1.411405629E1,-2.908942278E-2,-1.041967799E-1,-1.634957510E-1,1.960459744E-1
1.412398529E1,-4.482120118E-2,-1.507186803E-1,-4.592894340E-1,4.854604462E-1
1.413391329E1,-2.195222913E-2,-2.290180416E-1,-6.899556595E-1,7.273032214E-1
1.414384229E1,-3.345714670E-2,-3.227903872E-1,-1.799819756E-1,3.710882998E-1
1.415377129E1,5.372949818E-2,-2.764468178E-1,-4.759159917E-1,5.529970462E-1
1.416370029E1,-6.737109798E-2,-2.028976157E-1,2.168200189E-1,3.044950375E-1
1.417362929E1,1.246334108E-1,-3.091999963E-1,-4.623177069E-1,5.699787601E-1
1.418355829E1,-1.169022862E-2,-2.639845374E-1,1.619959402E-1,3.099470634E-1
1.419348729E1,1.398312013E-1,-3.556892345E-1,-3.045966661E-1,4.887194751E-1
1.420341629E1,-6.941628043E-2,-3.228941388E-1,-6.901176274E-2,3.374046061E-1
1.421334529E1,1.271706821E-1,-3.549734987E-1,-2.634767067E-1,4.599984154E-1
1.422327429E1,2.501685536E-3,-3.483646102E-1,-1.395566654E-1,3.752868542E-1
1.423320329E1,-3.191101497E-2,-4.070542831E-1,-1.802778447E-1,4.463312711E-1
1.424313229E1,8.051906487E-2,-3.205159300E-1,-3.689768493E-2,3.325285256E-1
1.425306129E1,3.566819821E-3,-3.616676836E-1,3.225850403E-2,3.631209807E-1
1.426299029E1,5.782518039E-2,-2.409410260E-1,-2.432792544E-2,2.489742506E-1
1.427291929E1,4.812965630E-2,-2.761835103E-1,6.257602483E-1,6.856892033E-1
1.428284829E1,1.286299735E-1,-2.746211161E-1,9.089906037E-2,3.165834276E-1
1.429277729E1,2.643626695E-2,-2.235708121E-1,8.717029095E-2,2.414155004E-1
1.430270629E1,9.408634108E-2,-2.983372583E-1,6.329102236E-1,7.059976703E-1
1.431263529E1,1.169560075E-1,-1.612565781E-1,1.311314124E-1,2.384907524E-1
1.432256429E1,-5.155946855E-2,-1.023107240E-1,3.484794348E-1,3.668293603E-1
1.433249329E1,1.058707647E-1,-6.580462891E-2,5.509819615E-1,5.649070631E-1
1.434242229E1,-3.466552863E-2,-7.345743278E-2,2.734596580E-1,2.852680807E-1
1.435235129E1,-1.631846426E-2,-6.389298682E-2,3.674600816E-1,3.733303063E-1
1.436228029E1,5.867529245E-2,2.225310492E-2,3.974060118E-1,4.023301242E-1
1.437220929E1,-6.988665238E-2,9.299665762E-2,4.069884288E-1,4.232872591E-1
1.438213829E1,-1.676542908E-3,1.138767175E-1,7.794116271E-1,7.876885184E-1
1.439206729E1,-2.340084940E-2,1.068083657E-1,8.446677232E-1,8.517154392E-1
1.440199629E1,-6.052248269E-2,1.373797014E-1,4.409502268E-1,4.658038812E-1
1.441192529E1,1.253405493E-3,1.309549544E-1,6.262601852E-1,6.398066823E-1
1.442185429E1,-3.241943037E-2,1.416170963E-1,7.458509481E-1,7.598684480E-1
1.443178329E1,5.065729799E-2,2.669840129E-1,3.346460921E-1,4.310854114E-1
1.444171129E1,-5.844944375E-2,3.103217480E-1,5.027453560E-1,5.936908436E-1
1.445164029E1,-1.260380125E-2,3.494421789E-1,5.470391840E-1,6.492461482E-1
1.446156929E1,1.668822756E-2,3.544661431E-1,3.542348492E-1,5.014050977E-1
1.447149829E1,-1.072945252E-1,2.735388513E-1,4.642472881E-1,5.494189320E-1
1.448142729E1,-1.723574622E-2,2.494402280E-1,3.950840825E-1,4.675563394E-1
1.449135629E1,-9.164450727E-3,3.233178792E-1,6.543344218E-1,7.299123054E-1
1.450128529E1,-3.257737828E-2,3.514481393E-1,4.137758768E-1,5.438635458E-1
1.451121429E1,-1.065377310E-1,3.554068870E-1,1.642430252E-1,4.057586904E-1
1.452114329E1,-1.055211743E-1,3.553711459E-1,3.510481167E-1,5.105469125E-1
1.453107229E1,-2.792626541E-2,4.134369941E-1,3.679500782E-1,5.541635900E-1
1.454100129E1,-1.978662876E-1,4.397204477E-1,1.646675330E-1,5.095297208E-1
1.455093029E1,-1.793504763E-1,4.204383770E-1,1.107755005E-1,4.703256677E-1
1.456085929E1,-1.403055110E-1,4.096435033E-1,2.881396776E-1,5.201133627E-1
1.457078829E1,-1.697373066E-1,3.776878850E-1,-1.586817384E-1,4.434397206E-1
1.458071729E1,-1.696089784E-1,3.427395156E-1,-2.516583145E-2,3.832373940E-1
1.459064629E1,-1.273905465E-2,3.594663896E-1,-6.289849877E-2,3.651500923E-1
1.460057529E1,-5.845633250E-2,3.701137673E-1,-6.829781771E-2,3.808752230E-1
1.461050429E1,1.107356664E-2,3.386799765E-1,-5.918083906E-2,3.439900029E-1
1.462043329E1,-7.490100525E-2,3.680235339E-1,-4.271420270E-1,5.687721805E-1
1.463036229E1,-4.533342641E-2,3.383535922E-1,2.188378930E-2,3.420777297E-1
1.464029129E1,3.656541690E-2,3.415855310E-1,-2.767668432E-1,4.411548370E-1
1.465022029E1,-1.825321656E-1,2.423059671E-1,-2.160288906E-1,3.724226829E-1
1.466014929E1,2.754954941E-2,2.295220351E-1,-5.473163420E-1,5.941334198E-1
1.467007829E1,-1.308983643E-1,1.956975736E-1,-2.632071501E-1,3.531429257E-1
1.468000729E1,-8.863657163E-2,1.374550665E-1,-5.269610149E-1,5.517592304E-1
1.468993629E1,-9.340595358E-2,7.808602930E-2,-4.860971636E-1,5.011113175E-1
1.469986529E1,-1.535008495E-1,-1.260213388E-2,-7.152583158E-1,7.316527748E-1
1.470979429E1,-8.358992203E-2,-2.893782458E-2,5.336753726E-3,8.861802129E-2
1.471972329E1,-6.967325642E-2,8.822305472E-2,-3.838527507E-1,3.999757546E-1
1.472965229E1,-1.685440543E-1,1.251809751E-1,-6.278406876E-1,6.620130692E-1
1.473958129E1,-3.732560975E-3,-4.587343505E-2,1.882552010E-1,1.937997027E-1
1.474950929E1,-1.100196931E-1,9.081959305E-3,-4.724754900E-1,4.852008898E-1
1.475943829E1,-1.162008030E-1,-1.410493499E-1,-5.753075480E-1,6.036359172E-1
1.476936729E1,-2.269747504E-2,-1.450495763E-1,-7.325976491E-2,1.640778721E-1
1.477929629E1,-9.807413301E-2,-9.873035506E-2,-2.855259722E-1,3.176339078E-1
1.478922529E1,4.155168487E-3,-1.609363882E-1,-5.277199835E-1,5.517301581E-1
1.479915429E1,8.192817075E-3,-1.752497691E-1,-3.241403997E-1,3.685737410E-1
1.480908329E1,1.421201122E-1,-1.782814225E-1,-4.111136395E-1,4.701029850E-1
1.481901229E1,1.293281585E-1,-3.444445637E-1,-3.944870818E-1,5.394329316E-1
1.482894129E1,1.583426730E-1,-2.716294430E-1,-6.023918509E-2,3.201307792E-1
1.483887029E1,1.946889655E-1,-2.867237196E-1,-2.445071697E-1,4.241438915E-1
1.484879929E1,1.078099115E-1,-3.394878424E-1,1.430053532E-2,3.564820858E-1
1.485872829E1,1.453262501E-1,-3.339408813E-1,-2.507753849E-2,3.650549467E-1
1.486865729E1,8.148889868E-3,-3.011557076E-1,1.494583404E-1,3.363018884E-1
1.487858629E1,6.178723544E-2,-2.373892810E-1,-1.036682099E-1,2.663051463E-1
1.488851529E1,-1.876789031E-2,-3.133781242E-1,-1.404688311E-1,3.439325151E-1
1.489844429E1,-3.433541676E-2,-3.223504939E-1,-2.668961585E-2,3.252708062E-1
1.490837329E1,9.010217624E-2,-2.946413246E-1,-2.889226198E-1,4.223839398E-1
1.491830229E1,-9.089348724E-2,-3.620018154E-1,1.519445765E-1,4.029815067E-1
1.492823129E1,5.295893566E-2,-2.089157162E-1,2.001560390E-1,2.941306942E-1
1.493816029E1,3.766619179E-2,-1.898419709E-1,2.446299613E-1,3.119335408E-1
1.494808929E1,7.927707972E-2,-1.694069571E-1,-1.789821017E-1,2.588786689E-1
1.495801829E1,7.744735803E-2,-2.169709684E-1,4.280062455E-1,4.860697898E-1
1.496794729E1,1.075226945E-1,-1.347307573E-1,1.721771121E-1,2.436359266E-1
1.497787629E1,6.463751553E-2,1.842284063E-3,1.694622499E-1,1.813804194E-1
1.498780529E1,2.294684965E-3,7.469835812E-2,2.278572232E-1,2.397999675E-1
1.499773429E1,3.810566487E-2,1.200666714E-1,2.348545861E-1,2.665046414E-1
1.500766329E1,5.672356496E-2,6.322520281E-2,2.140490234E-1,2.302867202E-1
1.501759229E1,-3.579937683E-2,5.585855163E-2,5.179405153E-2,8.416885971E-2
1.502752129E1,4.822820929E-2,1.012728615E-2,2.107722437E-1,2.164566026E-1
1.503745029E1,1.373058711E-2,6.169003918E-2,7.457071066E-2,9.774958233E-2
1.504737929E1,-4.104534340E-2,1.893376302E-1,4.317391080E-1,4.732146614E-1
1.505730829E1,1.926219016E-3,2.379369276E-1,4.534439725E-1,5.120831261E-1
1.506723729E1,-1.210105399E-1,2.892186351E-1,3.574853164E-1,4.754857738E-1
1.507716629E1,-6.601177566E-3,2.397719483E-1,3.693060476E-1,4.403647573E-1
1.508709529E1,-9.986983121E-2,1.869771458E-1,3.977428114E-1,4.507036502E-1
1.509702329E1,-9.979636643E-2,3.282172612E-1,8.577982306E-2,3.536157001E-1
1.510695229E1,-4.793198386E-2,3.854797384E-1,2.215977788E-2,3.890798884E-1
1.511688129E1,-8.606363229E-2,3.835790644E-1,2.216895801E-1,4.513159840E-1
1.512681029E1,-5.690927801E-2,3.981108571E-1,-7.829421759E-2,4.097083170E-1
1.513673929E1,-6.520217383E-2,3.237570782E-1,1.234826696E-1,3.525874910E-1
1.514666829E1,-1.777031877E-1,3.440877008E-1,3.162682933E-1,5.000004021E-1
1.515659729E1,-1.348534575E-1,4.363170393E-1,4.644513559E-1,6.513624765E-1
1.516652629E1,-1.748489973E-1,4.490546504E-1,3.680360323E-1,6.063602658E-1
1.517645529E1,-1.667423079E-1,4.688205051E-1,-3.178838789E-2,4.986042166E-1
1.518638429E1,-7.881773525E-2,4.552453900E-1,1.101118416E-1,4.749581225E-1
1.519631329E1,-7.678197230E-2,3.420602153E-1,1.010983586E-2,3.507176513E-1
1.520624229E1,-5.597635475E-2,4.562124098E-1,-3.883603692E-1,6.017365632E-1
1.521617488E1,-1.197879237E-1,3.700331854E-1,-3.195503354E-2,3.902497010E-1
1.522610388E1,-7.489329424E-2,3.448385564E-1,1.319278032E-1,3.767327710E-1
1.523603288E1,-7.881542377E-2,3.309196615E-1,-1.795943052E-1,3.846736381E-1
1.524596187E1,-1.513975238E-1,3.682796054E-1,-1.812642699E-1,4.375017869E-1
1.525589087E1,-1.201542609E-1,3.247585235E-1,-1.083763880E-1,3.628368593E-1
1.526581987E1,-6.795775644E-2,2.231686333E-1,1.535806274E-1,2.793018164E-1
1.527574887E1,-5.115573658E-3,1.995787361E-1,1.821600634E-1,2.702593748E-1
1.528567788E1,-7.728663269E-2,1.152407633E-1,-4.260035741E-1,4.480320327E-1
1.529560688E1,-3.986439770E-2,1.957104009E-1,1.637658924E-1,2.582847242E-1
1.530553588E1,1.105103933E-1,1.604469031E-1,-3.622233152E-2,1.981610785E-1
1.531546488E1,-1.936521079E-1,6.967861941E-2,-4.522002697E-1,4.968312921E-1
1.532539388E1,-3.721891634E-2,6.403529800E-2,-5.156630248E-1,5.209550098E-1
1.533532288E1,-7.767698002E-2,8.101035889E-2,-1.899526477E-2,1.138297481E-1
1.534525188E1,-1.087956790E-1,6.042371957E-2,-2.242056370E-1,2.564287295E-1
1.535518088E1,5.031638704E-2,1.411601273E-1,-2.978396237E-1,3.334161990E-1
1.536510988E1,-8.464811275E-2,-2.446481424E-2,-7.913270831E-2,1.184306365E-1
1.537503888E1,9.108530332E-2,-1.206072465E-1,2.850400686E-2,1.538022067E-1
1.538496788E1,-8.516807640E-3,-9.461158549E-2,2.132473701E-1,2.334487717E-1
1.539489688E1,1.817250671E-3,-5.618369336E-2,-2.939126337E-1,2.992399472E-1
1.540482588E1,-1.667547332E-2,-1.547274857E-1,-1.034951323E-1,1.868954485E-1
1.541475488E1,1.663186588E-2,-1.003171523E-1,5.007613957E-2,1.133480029E-1
1.542468388E1,-1.013385513E-2,3.587482419E-2,-6.693173271E-1,6.703546691E-1
1.543461288E1,-9.135492392E-2,-2.298429924E-2,-7.668272495E-2,1.214670344E-1
1.544454188E1,3.609699097E-2,-7.147580682E-2,-7.698151767E-2,1.110762701E-1
1.545447087E1,-7.544149811E-2,-1.188397337E-1,-1.830903554E-1,2.309467042E-1
1.546439987E1,5.110224369E-2,-1.911731991E-1,-1.745417261E-1,2.638625505E-1
1.547432887E1,1.413793613E-1,-1.626651540E-1,8.308133304E-2,2.309774535E-1
1.548425787E1,1.429898855E-1,-8.299606419E-2,-7.648041129E-2,1.821639573E-1
1.549418687E1,1.955042135E-1,6.611452220E-2,-8.888878763E-2,2.247092435E-1
1.550411588E1,1.868941154E-1,-4.951071382E-2,3.101790029E-1,3.655020314E-1
1.551404488E1,1.947516586E-1,-2.151150073E-1,-2.114972985E-1,3.590735052E-1
1.552397388E1,8.089653919E-2,-1.652890190E-1,-2.447129917E-1,3.061848431E-1
1.553390288E1,1.405591705E-1,-1.004983886E-1,2.110844851E-3,1.728041151E-1
1.554383088E1,3.357069232E-3,-3.719557316E-2,-1.604405808E-1,1.647299625E-1
1.555375988E1,7.581057619E-2,-5.213395748E-2,-2.442417061E-1,2.609965594E-1
1.556368888E1,5.262817511E-2,-3.023440811E-2,-1.719122332E-1,1.823119859E-1
1.557361788E1,-6.739562888E-2,1.588054435E-2,-2.143764675E-2,7.248403396E-2
1.558354688E1,5.308062170E-2,-2.785696677E-2,-9.489855587E-2,1.122465986E-1
1.559347588E1,-8.234123999E-2,-1.258047086E-1,4.614973426E-2,1.572790592E-1
1.560340488E1,-8.742756844E-2,1.107938644E-2,2.163656902E-1,2.336245801E-1
1.561333388E1,-1.252125592E-1,1.176000143E-1,4.804329658E-1,5.102193479E-1
1.562326288E1,-6.932817933E-2,1.100118816E-1,-1.756462651E-1,2.185420349E-1
1.563319188E1,-5.252298919E-2,1.053338167E-1,6.611446738E-2,1.350000005E-1
1.564312088E1,2.834839784E-2,7.437279155E-2,1.846673495E-1,2.010894670E-1
1.565304987E1,5.710172449E-2,2.267665347E-1,-4.690314800E-1,5.240936914E-1
1.566297887E1,-5.427287810E-2,2.003603626E-1,4.620586753E-2,2.126612386E-1
1.567290787E1,4.021433529E-2,1.623727567E-1,-2.027697444E-2,1.685029987E-1
1.568283687E1,-1.287750210E-1,2.863298182E-1,-1.488730341E-1,3.474635968E-1
1.569276588E1,-3.363374175E-2,2.665132755E-1,2.938401282E-2,2.702294854E-1
