"Time (s)","Linear Acceleration x (m/s^2)","Linear Acceleration y (m/s^2)","Linear Acceleration z (m/s^2)","Absolute acceleration (m/s^2)"
1.000225000E-2,-7.907424529E-2,1.590677825E-1,4.709055126E-2,1.837738167E-1
1.993125000E-2,-1.474416723E-1,1.778582486E-1,4.618423283E-2,2.355962365E-1
2.985925000E-2,-9.480346553E-2,1.853164269E-1,-2.478634715E-2,2.096288105E-1
3.978825000E-2,-1.355923537E-1,1.405828883E-1,2.294915199E-2,1.966608717E-1
4.971625000E-2,-1.270614214E-1,1.835097469E-1,1.006188869E-2,2.234315860E-1
5.964525000E-2,-9.154720595E-2,1.575637690E-1,2.846658468E-2,1.844385498E-1
6.957325000E-2,-1.475619148E-1,1.672523861E-1,-8.680776358E-3,2.232111897E-1
7.950225000E-2,-9.194583988E-2,1.748653695E-1,2.184519768E-2,1.987690811E-1
8.943125000E-2,-1.461137148E-1,1.704837219E-1,4.233501077E-2,2.284866959E-1
9.935925000E-2,-9.021947687E-2,1.812399492E-1,-1.755977333E-2,2.032137270E-1
1.092882500E-1,-1.374996606E-1,1.474554498E-1,3.960786939E-2,2.054703133E-1
1.192162500E-1,-1.322289165E-1,1.902826134E-1,-4.267297983E-3,2.317545450E-1
1.291452500E-1,-8.620139818E-2,1.571342362E-1,2.489335120E-2,1.809462024E-1
1.390732500E-1,-1.333306872E-1,1.496139677E-1,-5.927439451E-2,2.089853233E-1
1.490022500E-1,-1.051638911E-1,1.674957399E-1,7.199325800E-2,2.104692283E-1
1.589302500E-1,-1.630423725E-1,1.721406218E-1,3.050901711E-2,2.390523145E-1
1.688592500E-1,-9.457801882E-2,1.820431739E-1,-4.382488132E-3,2.051924097E-1
1.787872500E-1,-1.387054022E-1,1.429723713E-1,3.871149123E-2,2.029257674E-1
1.887162500E-1,-1.176937708E-1,1.813349847E-1,5.915628076E-3,2.162618668E-1
1.986442500E-1,-8.839327265E-2,1.710439583E-1,2.611308038E-2,1.942969358E-1
2.085732500E-1,-1.406494095E-1,1.587953571E-1,6.784524322E-3,2.122363108E-1
2.185022500E-1,-8.988309751E-2,1.620437229E-1,3.925586700E-2,1.894153174E-1
2.284302500E-1,-1.516404573E-1,1.509131825E-1,2.486762345E-2,2.153787725E-1
2.383592500E-1,-9.086690982E-2,1.686249469E-1,-1.601493895E-2,1.922177054E-1
2.482872500E-1,-1.262414408E-1,1.347229367E-1,6.540403068E-2,1.958694929E-1
2.582162500E-1,-1.262228302E-1,1.888620506E-1,-1.200374901E-2,2.274756405E-1
2.681442500E-1,-7.818472847E-2,1.668315693E-1,1.987117767E-2,1.853118668E-1
2.780732500E-1,-1.636672937E-1,1.661725881E-1,2.032492161E-3,2.332476004E-1
2.880012500E-1,-7.173725959E-2,1.528531425E-1,3.016403139E-2,1.715231365E-1
2.979302500E-1,-1.495746817E-1,1.516652623E-1,1.607574999E-2,2.136196783E-1
3.078582500E-1,-9.144285142E-2,1.695405112E-1,-9.531546235E-3,1.928642797E-1
3.177872500E-1,-1.267675074E-1,1.398579980E-1,4.434820712E-2,1.938995204E-1
3.277152500E-1,-1.221897680E-1,1.627876349E-1,-1.584069192E-2,2.041594500E-1
3.376442500E-1,-9.045029570E-2,1.518237767E-1,2.172240615E-2,1.780549861E-1
3.475732500E-1,-1.600468257E-1,1.584906989E-1,-5.541406274E-3,2.253108857E-1
3.575014167E-1,-7.425259472E-2,1.643076917E-1,2.738134146E-2,1.823738009E-1
3.674304167E-1,-1.367727330E-1,1.383455609E-1,4.158949077E-2,1.989370766E-1
3.773584167E-1,-1.057665655E-1,1.726827501E-1,-1.814858794E-2,2.033107715E-1
3.872874167E-1,-1.202001067E-1,1.456525887E-1,4.082292080E-2,1.932077978E-1
3.972154167E-1,-1.365391458E-1,1.690411224E-1,-9.639719725E-3,2.175103759E-1
4.071444167E-1,-9.073955015E-2,1.376916594E-1,2.148851752E-2,1.662961678E-1
4.170724167E-1,-1.572724132E-1,1.503908251E-1,1.653183281E-2,2.182322472E-1
4.270014167E-1,-7.750764831E-2,1.579383928E-1,1.831874192E-2,1.768828646E-1
4.369294167E-1,-1.518822306E-1,1.445189415E-1,2.997633576E-2,2.117841286E-1
4.468584167E-1,-9.750938335E-2,1.583817579E-1,-2.766376197E-2,1.880376154E-1
4.567864167E-1,-1.191670864E-1,1.416900038E-1,3.025407851E-2,1.875957380E-1
4.667154167E-1,-1.147623788E-1,1.581309672E-1,-2.918871582E-2,1.975545178E-1
4.766434167E-1,-8.873411964E-2,1.421110764E-1,3.337122917E-2,1.708301524E-1
4.865724167E-1,-1.561329005E-1,1.612512242E-1,1.920225620E-3,2.244618614E-1
4.965004167E-1,-8.081432185E-2,1.490025134E-1,1.957589328E-2,1.706338748E-1
5.064294167E-1,-1.383445468E-1,1.477867311E-1,2.120434284E-2,2.035430069E-1
5.163584167E-1,-1.140138073E-1,1.604906111E-1,1.774746895E-2,1.976647595E-1
5.262864167E-1,-1.217859447E-1,1.297660144E-1,2.716908753E-2,1.800255375E-1
5.362154167E-1,-1.308854822E-1,1.644058519E-1,-2.972958326E-2,2.122360518E-1
5.461434167E-1,-8.676215529E-2,1.414669690E-1,3.657784224E-2,1.699367926E-1
5.560724167E-1,-1.650641204E-1,1.504636412E-1,2.413964510E-2,2.246512712E-1
5.660004167E-1,-7.041308451E-2,1.516214082E-1,1.439876854E-2,1.677926650E-1
5.759294167E-1,-1.439808972E-1,1.368885261E-1,3.983181775E-2,2.026216697E-1
5.858574167E-1,-1.134631732E-1,1.457333899E-1,7.938179970E-3,1.848651598E-1
5.957864167E-1,-1.192975981E-1,1.305172720E-1,6.047365844E-2,1.868789409E-1
6.057144167E-1,-1.205348050E-1,1.527199538E-1,-1.588571548E-2,1.952034310E-1
6.156434167E-1,-9.618554631E-2,1.271797910E-1,6.673485696E-2,1.728580333E-1
6.255714167E-1,-1.586764393E-1,1.446357031E-1,1.148510098E-2,2.150107127E-1
6.355004167E-1,-8.050434633E-2,1.475350815E-1,2.240243733E-2,1.695565371E-1
6.454284167E-1,-1.441072610E-1,1.302920263E-1,3.122062325E-2,1.967679906E-1
6.553574167E-1,-1.082733947E-1,1.477143352E-1,9.657261372E-3,1.834009693E-1
6.652854167E-1,-1.129201222E-1,1.188811119E-1,2.716265559E-2,1.661971198E-1
6.752144167E-1,-1.296723950E-1,1.512782497E-1,-8.925189972E-3,1.994484843E-1
6.851424167E-1,-8.861781486E-2,1.298142540E-1,4.870087445E-2,1.645497883E-1
6.950714167E-1,-1.619661560E-1,1.471875925E-1,2.862855256E-2,2.207188643E-1
7.050004167E-1,-7.370612673E-2,1.457590812E-1,2.722463608E-3,1.633576281E-1
7.149284167E-1,-1.538483203E-1,1.229842493E-1,4.327407360E-2,2.016607961E-1
7.248574167E-1,-1.039194757E-1,1.621051735E-1,1.167981327E-2,1.929086902E-1
7.347854167E-1,-1.168950685E-1,1.333926220E-1,4.101354003E-2,1.820443878E-1
7.447144167E-1,-1.292133521E-1,1.552765210E-1,-2.666213393E-2,2.037590678E-1
7.546424167E-1,-9.052277377E-2,1.293885219E-1,5.161921978E-2,1.661333982E-1
7.645714167E-1,-1.554280187E-1,1.328114088E-1,9.092420340E-3,2.046445978E-1
7.744994167E-1,-8.052309397E-2,1.470093986E-1,1.313284636E-2,1.681315068E-1
7.844284167E-1,-1.525824803E-1,1.354357671E-1,2.764329672E-2,2.058844631E-1
7.943564167E-1,-1.043439653E-1,1.540041669E-1,2.194460034E-2,1.873139397E-1
8.042854167E-1,-1.113317078E-1,1.174958334E-1,2.537925482E-2,1.638417731E-1
8.142134167E-1,-1.440991480E-1,1.471934214E-1,-6.071164012E-3,2.060760219E-1
8.241424167E-1,-9.030992598E-2,1.322288617E-1,3.628489673E-2,1.641857129E-1
8.340704167E-1,-1.442448807E-1,1.423943740E-1,7.830591202E-3,2.028399899E-1
8.439994167E-1,-8.229306442E-2,1.287086186E-1,3.935760856E-3,1.528186741E-1
8.539274167E-1,-1.458638011E-1,1.107791185E-1,2.907469511E-2,1.854551144E-1
8.638564167E-1,-1.091171845E-1,1.451947700E-1,-8.504775167E-3,1.818252249E-1
8.737844167E-1,-1.125494087E-1,1.121511677E-1,3.699533343E-2,1.631376980E-1
8.837134167E-1,-1.362567801E-1,1.354284581E-1,-7.626523376E-3,1.922626881E-1
8.936414167E-1,-9.127874566E-2,1.263377919E-1,5.598708987E-2,1.656128054E-1
9.035704167E-1,-1.419978049E-1,1.359916911E-1,-2.186858654E-2,1.978265698E-1
9.134994167E-1,-7.626146961E-2,1.268097536E-1,2.812276840E-2,1.506234226E-1
9.234274167E-1,-1.499436776E-1,1.254258090E-1,2.915947974E-2,1.976487168E-1
9.333564167E-1,-1.041897815E-1,1.316712200E-1,3.555691838E-3,1.679448234E-1
9.432844167E-1,-1.075647031E-1,1.157001717E-1,2.495474696E-2,1.599357198E-1
9.532134167E-1,-1.436813918E-1,1.326868266E-1,1.596465290E-2,1.962269259E-1
9.631414167E-1,-9.186132934E-2,1.272237730E-1,2.045472980E-2,1.582491334E-1
9.730704167E-1,-1.424914560E-1,1.312815762E-1,7.269258499E-3,1.938852996E-1
9.829984167E-1,-8.182942590E-2,1.409665753E-1,1.250251651E-2,1.634745950E-1
9.929274167E-1,-1.407687019E-1,1.239834836E-1,4.258234799E-2,1.923564088E-1
1.002855417E0,-9.944726025E-2,1.481792985E-1,-4.724023998E-2,1.846036358E-1
1.012784417E0,-1.073551535E-1,1.100550687E-1,2.221006393E-2,1.553400595E-1
1.022712417E0,-1.414078117E-1,1.335187209E-1,-3.348232627E-2,1.973435689E-1
1.032641417E0,-8.721276549E-2,1.064485792E-1,3.447459877E-2,1.418656563E-1
1.042569417E0,-1.508603748E-1,1.275553284E-1,2.279829383E-3,1.975712836E-1
1.052498417E0,-8.489671078E-2,1.279108391E-1,1.350648344E-2,1.541137870E-1
1.062426417E0,-1.484640488E-1,1.095484989E-1,2.143179953E-2,1.857465193E-1
1.072355417E0,-1.070691698E-1,1.325102407E-1,7.052326798E-3,1.705066166E-1
1.082283417E0,-1.156914009E-1,1.069978338E-1,1.063959360E-2,1.579437800E-1
1.092212417E0,-1.425412487E-1,1.258435925E-1,-1.198094487E-3,1.901474502E-1
1.102140417E0,-8.763075918E-2,1.212450863E-1,2.169901729E-2,1.511633827E-1
1.112069417E0,-1.451754833E-1,1.176137462E-1,-6.145423651E-4,1.868402845E-1
1.121997417E0,-8.888190801E-2,1.261998524E-1,-1.968172789E-3,1.543705608E-1
1.131926417E0,-1.366821559E-1,1.043802181E-1,4.996387303E-2,1.790911228E-1
1.141854417E0,-1.025919933E-1,1.344994634E-1,-7.825913429E-3,1.693412758E-1
1.151783417E0,-1.101901120E-1,1.046068342E-1,5.159583092E-2,1.604574097E-1
1.161711417E0,-1.541171460E-1,1.313126213E-1,-1.248672903E-2,2.028571359E-1
1.171640417E0,-8.431119435E-2,1.189629729E-1,7.163482368E-2,1.624565000E-1
1.181568417E0,-1.569669328E-1,1.280098398E-1,7.405498624E-3,2.026819638E-1
1.191497417E0,-8.182415427E-2,1.171007261E-1,2.626218438E-2,1.452496974E-1
1.201425417E0,-1.523008090E-1,1.079352155E-1,1.323049486E-2,1.871378988E-1
1.211354417E0,-1.062996305E-1,1.349591459E-1,5.438495278E-3,1.718812374E-1
1.221282417E0,-1.233372566E-1,1.065754273E-1,3.866412878E-2,1.675270588E-1
1.231211417E0,-1.390011343E-1,1.306458011E-1,8.120028377E-3,1.909334322E-1
1.241139417E0,-8.547845392E-2,1.182293118E-1,4.419267118E-2,1.524392615E-1
1.251068417E0,-1.510602308E-1,1.165418236E-1,1.065128803E-2,1.910880423E-1
1.260996417E0,-9.439167537E-2,1.282457201E-1,5.016384780E-2,1.669525823E-1
1.270925417E0,-1.408431899E-1,9.999168171E-2,4.057675302E-2,1.774305877E-1
1.280853417E0,-1.120335473E-1,1.347785949E-1,-3.158139646E-2,1.780847269E-1
1.290782417E0,-1.121657309E-1,9.760585327E-2,4.236249268E-2,1.546047689E-1
1.300711417E0,-1.538946595E-1,1.259677545E-1,1.091558218E-2,1.991747758E-1
1.310639417E0,-7.531293246E-2,1.261464052E-1,4.070012927E-2,1.524514804E-1
1.320567417E0,-1.672519293E-1,1.242023522E-1,2.963953614E-3,2.083463874E-1
1.330496417E0,-8.675267184E-2,1.218105852E-1,3.349928319E-2,1.532515798E-1
1.340424417E0,-1.525812195E-1,1.140959881E-1,2.929805875E-2,1.927622870E-1
1.350353417E0,-1.066376727E-1,1.280971277E-1,-2.744683027E-3,1.666973325E-1
1.360285875E0,-1.219319058E-1,9.074007092E-2,5.098947465E-2,1.603155533E-1
1.370213875E0,-1.415495336E-1,1.265780028E-1,2.027229667E-3,1.899009503E-1
1.380142875E0,-8.417330056E-2,1.136959289E-1,2.537457705E-2,1.437211813E-1
1.390070875E0,-1.554076082E-1,1.182050824E-1,1.218910575E-2,1.956336896E-1
1.399999875E0,-9.267481408E-2,1.234936514E-1,2.295909226E-2,1.560974792E-1
1.409927875E0,-1.309625649E-1,1.127597349E-1,3.612175941E-2,1.765523512E-1
1.419856875E0,-1.105437772E-1,1.256288718E-1,-1.478585422E-2,1.679915522E-1
1.429784875E0,-1.060229019E-1,9.756494103E-2,4.897686303E-2,1.521791923E-1
1.439713875E0,-1.420996652E-1,1.262280470E-1,-1.285568833E-2,1.905022399E-1
1.449641875E0,-8.116685414E-2,1.143231525E-1,2.231882215E-2,1.419717268E-1
1.459570875E0,-1.672058459E-1,1.154384723E-1,1.063199222E-2,2.034622202E-1
1.469498875E0,-8.495960489E-2,1.245002861E-1,7.782644033E-3,1.509272184E-1
1.479427875E0,-1.360342844E-1,1.005818302E-1,3.276955068E-2,1.723249099E-1
1.489355875E0,-1.109391678E-1,1.249068686E-1,-1.701539755E-4,1.670606289E-1
1.499284875E0,-1.152050953E-1,1.004728893E-1,3.290871441E-2,1.563649543E-1
1.509212875E0,-1.384817005E-1,1.231326955E-1,1.169443130E-4,1.853074627E-1
1.519141875E0,-8.096457702E-2,1.110538645E-1,3.304553926E-2,1.413514458E-1
1.529069875E0,-1.573899423E-1,1.117775854E-1,1.043143272E-2,1.933252113E-1
1.538998875E0,-9.550078254E-2,1.165526592E-1,-9.782976508E-3,1.509987698E-1
1.548926875E0,-1.443439453E-1,9.573002994E-2,1.939930737E-2,1.742863916E-1
1.558855875E0,-1.314903766E-1,1.161013821E-1,9.805780649E-4,1.754143996E-1
1.568783875E0,-1.087305556E-1,9.839553801E-2,2.507929265E-2,1.487715919E-1
1.578712875E0,-1.402350338E-1,1.239393189E-1,-1.250368595E-2,1.875717506E-1
1.588640875E0,-7.488139881E-2,9.884380018E-2,-2.927116156E-3,1.240398675E-1
1.598569875E0,-1.526972867E-1,1.069750479E-1,-7.578576207E-3,1.865946330E-1
1.608497875E0,-7.197736088E-2,1.092366596E-1,-2.045356035E-3,1.308341383E-1
1.618426875E0,-1.330750543E-1,9.927505061E-2,3.252221346E-2,1.691809685E-1
1.628354875E0,-1.144725854E-1,1.260131253E-1,8.862624764E-3,1.704752963E-1
1.638283875E0,-1.153109116E-1,1.010364147E-1,4.867631614E-2,1.608550502E-1
1.648211875E0,-1.326630723E-1,1.175562973E-1,-2.797307968E-2,1.794476719E-1
1.658140875E0,-9.382690743E-2,1.115921190E-1,2.516349256E-2,1.479509748E-1
1.668068875E0,-1.573798375E-1,1.085317412E-1,-1.241714716E-2,1.915769758E-1
1.677997875E0,-8.596465903E-2,1.242089486E-1,-8.976060748E-3,1.513220248E-1
1.687925875E0,-1.334656209E-1,9.752770158E-2,4.849739134E-2,1.722693284E-1
1.697854875E0,-1.278468486E-1,1.200656207E-1,1.106877923E-2,1.757358468E-1
1.707782875E0,-1.037010822E-1,8.794755036E-2,2.857768178E-2,1.389437655E-1
1.717711875E0,-1.385620540E-1,1.180669236E-1,1.135003030E-2,1.823953521E-1
1.727639875E0,-9.388131394E-2,1.071775626E-1,4.353193581E-2,1.489824166E-1
1.737568875E0,-1.644940169E-1,9.451816709E-2,9.242693782E-3,1.899404983E-1
1.747496875E0,-8.557140637E-2,1.171545113E-1,7.741128802E-3,1.452844458E-1
1.757425875E0,-1.400312583E-1,9.550649271E-2,5.054800987E-2,1.768766371E-1
1.767353875E0,-1.162834863E-1,1.063789060E-1,-1.083138227E-2,1.579735411E-1
1.777282875E0,-1.110009107E-1,9.430326364E-2,5.592920244E-2,1.560204583E-1
1.787210875E0,-1.401188295E-1,1.180332108E-1,3.078559041E-3,1.832337381E-1
1.797138875E0,-9.790448153E-2,1.019429889E-1,5.382595897E-2,1.512444854E-1
1.807067875E0,-1.614377504E-1,1.067222106E-1,2.324852943E-3,1.935385813E-1
1.816996875E0,-8.470819289E-2,1.278889486E-1,1.864209294E-2,1.545269839E-1
1.826924875E0,-1.418559916E-1,8.672918248E-2,4.827519715E-2,1.731345376E-1
1.836852875E0,-1.320294990E-1,1.115900542E-1,3.360219419E-2,1.761057531E-1
1.846781875E0,-1.167803078E-1,9.428243293E-2,5.021647274E-2,1.582672158E-1
1.856709875E0,-1.542378362E-1,1.153951572E-1,-3.076804876E-3,1.926520676E-1
1.866638875E0,-9.207531916E-2,1.035751295E-1,3.389806330E-2,1.426700759E-1
1.876566875E0,-1.561678742E-1,1.080978778E-1,2.775263965E-2,1.919472977E-1
1.886495875E0,-8.920910541E-2,1.108984200E-1,-7.723002434E-3,1.425355002E-1
1.896423875E0,-1.443698284E-1,8.700780231E-2,5.619174242E-2,1.776809414E-1
1.906352875E0,-1.202307863E-1,1.267610207E-1,-3.538150191E-3,1.747464359E-1
1.916280875E0,-1.064186579E-1,8.336635740E-2,6.292539597E-2,1.491123260E-1
1.926209875E0,-1.471937046E-1,1.236899168E-1,-1.521913290E-2,1.928647304E-1
1.936137875E0,-9.350738450E-2,9.576705926E-2,4.466220260E-2,1.411016404E-1
1.946066875E0,-1.619385461E-1,1.028598598E-1,1.157748699E-2,1.921933445E-1
1.955994875E0,-8.675738616E-2,1.053309114E-1,3.791919351E-3,1.365130895E-1
1.965923875E0,-1.490306805E-1,8.192714749E-2,2.549386024E-2,1.719655144E-1
1.975851875E0,-1.228036525E-1,1.090175534E-1,1.381521642E-2,1.647920636E-1
1.985780875E0,-1.091326613E-1,9.561278413E-2,3.671992958E-2,1.496666145E-1
1.995708875E0,-1.557303928E-1,1.120057730E-1,1.725337923E-2,1.926004349E-1
2.005637875E0,-8.936904503E-2,8.751045272E-2,2.339295566E-2,1.272483238E-1
2.015565875E0,-1.563282341E-1,9.879437294E-2,1.620088041E-2,1.856375862E-1
2.025494875E0,-9.176840429E-2,1.128657888E-1,1.006247342E-2,1.458128241E-1
2.035422875E0,-1.519724330E-1,7.720832569E-2,5.122687161E-2,1.779913996E-1
2.045351875E0,-1.207538654E-1,1.158446528E-1,-1.104480565E-2,1.677005287E-1
2.055279875E0,-1.013294516E-1,9.223638254E-2,3.086920559E-2,1.404568114E-1
2.065208875E0,-1.563184400E-1,1.093142448E-1,-9.402322769E-3,1.909802672E-1
2.075136875E0,-8.831652794E-2,9.299651144E-2,3.730582058E-2,1.335660305E-1
2.085065875E0,-1.613455654E-1,9.515432588E-2,-4.215842485E-4,1.873150152E-1
2.094993875E0,-9.222669809E-2,1.058306838E-1,1.394736350E-2,1.410688712E-1
2.104922875E0,-1.428575831E-1,8.443531064E-2,3.146152854E-2,1.689006765E-1
2.114850875E0,-1.236910223E-1,1.142118909E-1,-7.012565732E-3,1.685022288E-1
2.124779875E0,-1.032761084E-1,8.737532722E-2,1.349712789E-2,1.359506338E-1
2.134707875E0,-1.590270165E-1,9.668773077E-2,-6.568177342E-3,1.862290262E-1
2.144636875E0,-9.913656296E-2,9.139142334E-2,-4.321677089E-3,1.349041410E-1
2.154564875E0,-1.533604615E-1,8.485986418E-2,-2.348709583E-2,1.768396770E-1
2.164493875E0,-9.389358396E-2,1.082217017E-1,-3.246900380E-2,1.469087405E-1
2.174421875E0,-1.360972882E-1,7.240981730E-2,2.665745616E-2,1.564489484E-1
2.184350875E0,-1.181514890E-1,1.102617039E-1,-1.765274405E-2,1.625700989E-1
2.194278875E0,-1.073835581E-1,7.806982155E-2,5.239923835E-2,1.427298349E-1
2.204207875E0,-1.578707661E-1,8.843642327E-2,1.332346559E-2,1.814433644E-1
2.214135875E0,-8.886681489E-2,6.969528398E-2,1.781178832E-2,1.143328614E-1
2.224064875E0,-1.584092581E-1,8.421031161E-2,-1.168215215E-2,1.797813737E-1
2.233992875E0,-1.045971223E-1,9.004670078E-2,-1.123425543E-2,1.384744555E-1
2.243920875E0,-1.417242648E-1,7.270228771E-2,2.588854730E-2,1.613741205E-1
2.253849875E0,-1.173181420E-1,8.888521534E-2,-2.321520030E-2,1.490069578E-1
2.263777875E0,-1.107912332E-1,6.890847716E-2,3.561246693E-2,1.352454191E-1
2.273706875E0,-1.611821905E-1,8.559751784E-2,3.121828437E-3,1.825277497E-1
2.283634875E0,-9.693162362E-2,7.551270624E-2,4.338867903E-2,1.303091936E-1
2.293563875E0,-1.499012853E-1,6.771600148E-2,1.434263527E-2,1.651107609E-1
2.303491875E0,-1.101988828E-1,8.099464450E-2,1.479053199E-2,1.375597545E-1
2.313420875E0,-1.400178097E-1,6.609589334E-2,1.882920384E-2,1.559749758E-1
2.323348875E0,-1.287017755E-1,9.226252142E-2,-1.276096344E-2,1.588690091E-1
2.333277875E0,-1.115221352E-1,6.808771994E-2,6.986662567E-2,1.481704074E-1
2.343205875E0,-1.554864543E-1,8.471846206E-2,1.267676353E-2,1.775217046E-1
2.353134875E0,-8.434545538E-2,7.025665322E-2,1.641956627E-2,1.109943932E-1
2.363059375E0,-1.543515646E-1,8.095177710E-2,3.991250932E-2,1.788032553E-1
2.372988375E0,-9.967319118E-2,8.756217317E-2,2.509098709E-2,1.350238381E-1
2.382916375E0,-1.439852917E-1,6.504329402E-2,3.661643386E-2,1.621824823E-1
2.392845375E0,-1.200741997E-1,8.999092382E-2,3.975521922E-3,1.501065774E-1
2.402773375E0,-1.171985756E-1,7.173162251E-2,7.597755075E-2,1.570143942E-1
2.412702375E0,-1.516819817E-1,1.001823466E-1,3.369165659E-3,1.818111037E-1
2.422630375E0,-8.998824690E-2,8.717708834E-2,3.435706973E-2,1.299158864E-1
2.432559375E0,-1.624052088E-1,7.625257088E-2,2.955825984E-2,1.818339823E-1
2.442487375E0,-1.109576322E-1,1.006526638E-1,2.446767390E-2,1.517933527E-1
2.452416375E0,-1.338851221E-1,7.855279243E-2,1.593249321E-2,1.560436203E-1
2.462344375E0,-1.216024700E-1,1.217514187E-1,6.644775867E-3,1.722054636E-1
2.472272375E0,-1.113178937E-1,7.469507363E-2,4.316648483E-2,1.408345586E-1
2.482201375E0,-1.487944439E-1,1.028114192E-1,3.790749907E-3,1.808987127E-1
2.492129375E0,-8.124474088E-2,9.882619458E-2,1.980802774E-2,1.294591929E-1
2.502058375E0,-1.666344998E-1,9.338410875E-2,1.830529332E-2,1.918925013E-1
2.511986375E0,-1.011983369E-1,9.452729423E-2,9.918047190E-3,1.388340030E-1
2.521915375E0,-1.391288320E-1,7.660305664E-2,1.485309720E-2,1.595163774E-1
2.531843375E0,-1.173241719E-1,1.111741710E-1,-2.661769509E-2,1.638083005E-1
2.541772375E0,-1.165453594E-1,6.917967833E-2,5.062226951E-2,1.446764074E-1
2.551700375E0,-1.512131446E-1,9.786936169E-2,-1.255397201E-2,1.805586588E-1
2.561629375E0,-8.394101079E-2,8.304873481E-2,3.040844500E-2,1.219338311E-1
2.571557375E0,-1.578535534E-1,7.799555277E-2,3.756251335E-3,1.761112148E-1
2.581486375E0,-1.017270714E-1,8.300124446E-2,1.512791634E-2,1.321607259E-1
2.591414375E0,-1.365395752E-1,5.793622267E-2,1.003265262E-2,1.486617490E-1
2.601343375E0,-1.349825439E-1,8.729556754E-2,-1.407541752E-2,1.613657977E-1
2.611271375E0,-1.046900474E-1,5.547431647E-2,2.917936027E-2,1.220198380E-1
2.621200375E0,-1.600804655E-1,7.201532210E-2,-1.364272356E-2,1.760627330E-1
2.631128375E0,-8.967429710E-2,6.293079550E-2,1.225167096E-2,1.102355116E-1
2.641057375E0,-1.734073297E-1,6.954950558E-2,2.392095923E-2,1.883598896E-1
2.650985375E0,-1.051296301E-1,8.293520747E-2,1.808251441E-2,1.351201876E-1
2.660913375E0,-1.438699189E-1,5.817001993E-2,2.481324434E-2,1.571559794E-1
2.670842375E0,-1.237894474E-1,8.578050829E-2,1.075887680E-4,1.506058912E-1
2.680770375E0,-1.085031446E-1,6.419065121E-2,3.408458948E-2,1.305952960E-1
2.690699375E0,-1.476886258E-1,8.194552054E-2,-2.759359539E-2,1.711385551E-1
2.700627375E0,-9.764902216E-2,7.250832461E-2,3.317944050E-2,1.260700755E-1
2.710556375E0,-1.612659336E-1,7.661325272E-2,9.522190690E-3,1.787930758E-1
2.720484375E0,-1.021951136E-1,8.933415360E-2,-1.996941090E-2,1.371977026E-1
2.730413375E0,-1.250654104E-1,7.577393060E-2,8.021210432E-3,1.464492583E-1
2.740341375E0,-1.359573570E-1,9.086230514E-2,-2.463431954E-3,1.635433579E-1
2.750270375E0,-1.019362646E-1,6.487009767E-2,4.454116523E-2,1.287751801E-1
2.760198375E0,-1.570397489E-1,9.414533400E-2,-5.311025977E-3,1.831748717E-1
2.770127375E0,-8.894997326E-2,8.513579794E-2,2.582832098E-2,1.258066135E-1
2.780055375E0,-1.646776560E-1,7.332355438E-2,3.240877748E-2,1.831540414E-1
2.789984375E0,-9.886219150E-2,1.062857160E-1,-3.514761329E-3,1.451989665E-1
2.799912375E0,-1.391320753E-1,7.261869080E-2,2.761932313E-2,1.593550616E-1
2.809840375E0,-1.349235693E-1,1.028858890E-1,-1.310127139E-2,1.701808421E-1
2.819769375E0,-1.067340695E-1,6.363384096E-2,2.806254208E-2,1.273928318E-1
2.829697375E0,-1.547739528E-1,1.012213055E-1,-5.922060013E-3,1.850291867E-1
2.839626375E0,-9.192080649E-2,8.442146919E-2,4.931541681E-2,1.341954897E-1
2.849554375E0,-1.585028136E-1,7.841051322E-2,6.647699475E-3,1.769619801E-1
2.859483375E0,-1.031198690E-1,9.572261129E-2,1.128629565E-2,1.411520675E-1
2.869411375E0,-1.382658286E-1,6.985730667E-2,4.167135179E-2,1.604181543E-1
2.879340375E0,-1.468925822E-1,8.394287459E-2,-2.473372221E-4,1.691859866E-1
2.889268375E0,-1.036968521E-1,6.183081547E-2,2.699600995E-2,1.237128588E-1
2.899197375E0,-1.631854283E-1,8.607266807E-2,4.982997179E-3,1.845611510E-1
2.909125375E0,-9.207367463E-2,7.762836590E-2,3.237544835E-2,1.247072348E-1
2.919054375E0,-1.533016422E-1,7.468652207E-2,3.236667752E-2,1.735715181E-1
2.928982375E0,-9.247574380E-2,1.056977967E-1,-1.911454797E-3,1.404544093E-1
2.938911375E0,-1.395038852E-1,6.460908344E-2,3.745492458E-2,1.582357071E-1
2.948839375E0,-1.328336739E-1,8.798063281E-2,-1.917302012E-3,1.593394261E-1
2.958767375E0,-1.103530849E-1,6.885297429E-2,3.535518944E-2,1.347906704E-1
2.968696375E0,-1.647826136E-1,8.309532981E-2,-1.674408674E-2,1.853065245E-1
2.978624375E0,-1.120396046E-1,8.049715608E-2,4.672100723E-2,1.456554759E-1
2.988553375E0,-1.658132949E-1,8.285785977E-2,4.201809168E-3,1.854107033E-1
2.998481375E0,-1.093255921E-1,9.361130049E-2,-2.364263177E-2,1.458565552E-1
3.008410375E0,-1.400610152E-1,6.510804280E-2,5.694603324E-3,1.545592887E-1
3.018338375E0,-1.454604072E-1,8.896684796E-2,-1.990626097E-2,1.716685449E-1
3.028267375E0,-9.825119401E-2,6.630133160E-2,-4.186021686E-3,1.186030627E-1
3.038195375E0,-1.418467640E-1,8.814059984E-2,-1.800357699E-3,1.670105119E-1
3.048124375E0,-8.141997462E-2,7.295773795E-2,3.816886961E-2,1.157968324E-1
3.058052375E0,-1.411881848E-1,6.639669604E-2,5.529711843E-3,1.561191932E-1
3.067981375E0,-7.847380933E-2,9.267333400E-2,-5.996319652E-3,1.215830639E-1
3.077909375E0,-1.362344054E-1,6.701572431E-2,1.720484734E-2,1.527970134E-1
3.087837375E0,-1.184069666E-1,8.916871394E-2,-3.025173962E-2,1.512826396E-1
3.097766375E0,-9.831244360E-2,7.652954618E-2,2.543304920E-2,1.271571783E-1
3.107694375E0,-1.666276294E-1,6.843099718E-2,-1.768198013E-2,1.809978471E-1
3.117623375E0,-1.096443932E-1,7.057756486E-2,5.207705677E-2,1.404104892E-1
3.127551375E0,-1.664057641E-1,7.828943018E-2,-5.251969099E-3,1.839774344E-1
3.137480375E0,-1.153093859E-1,8.714587882E-2,1.226336539E-2,1.450553301E-1
3.147408375E0,-1.606684395E-1,6.455518856E-2,2.663406730E-2,1.751887364E-1
3.157337375E0,-1.470067399E-1,9.192702829E-2,-2.726030409E-2,1.755126329E-1
3.167265375E0,-1.123701185E-1,7.139601060E-2,2.663055897E-2,1.357704700E-1
3.177194375E0,-1.639452557E-1,6.447140892E-2,1.974020004E-2,1.772689621E-1
3.187122375E0,-9.813487097E-2,8.339298050E-2,1.989398181E-2,1.303096796E-1
3.197051375E0,-1.547003692E-1,6.382850756E-2,1.689611435E-2,1.682015496E-1
3.206979375E0,-1.031125143E-1,8.331293760E-2,1.000867903E-2,1.329413774E-1
3.216907375E0,-1.430746427E-1,6.149288295E-2,5.356868148E-2,1.646855539E-1
3.226836375E0,-1.292888908E-1,9.844696610E-2,-3.729412615E-2,1.667281448E-1
3.236764375E0,-9.653967745E-2,7.144913804E-2,3.680354476E-2,1.256160402E-1
3.246693375E0,-1.641714699E-1,7.406182017E-2,1.823688090E-2,1.810248838E-1
3.256621375E0,-8.540639612E-2,6.708001628E-2,3.935000718E-2,1.155093249E-1
3.266550375E0,-1.568074134E-1,6.125370442E-2,3.275025487E-3,1.683784636E-1
3.276478375E0,-1.148979246E-1,8.554000500E-2,2.528043687E-2,1.454569559E-1
3.286407375E0,-1.395322442E-1,5.385691267E-2,5.746526599E-2,1.602250636E-1
3.296335375E0,-1.349309423E-1,7.944771792E-2,-9.168434143E-4,1.565858859E-1
3.306263375E0,-1.123801136E-1,5.779007882E-2,2.603297353E-2,1.290220866E-1
3.316192375E0,-1.694848896E-1,8.365552962E-2,3.411324084E-2,1.920601172E-1
3.326120375E0,-9.602951702E-2,8.353705041E-2,1.750071645E-2,1.284771653E-1
3.336049375E0,-1.580033517E-1,6.801854007E-2,2.722755969E-2,1.741634892E-1
3.345977375E0,-1.214003573E-1,7.812355198E-2,1.785154939E-3,1.443763239E-1
3.355906375E0,-1.484947832E-1,5.467307433E-2,7.004613519E-2,1.730500123E-1
3.365840167E0,-1.441585703E-1,9.467974210E-2,-3.892842293E-2,1.768088490E-1
3.375769167E0,-1.060998385E-1,6.603746686E-2,1.930399776E-2,1.264546048E-1
3.385697167E0,-1.753456452E-1,6.978421647E-2,7.625353932E-3,1.888758274E-1
3.395626167E0,-9.085106752E-2,6.900938731E-2,2.349762082E-2,1.164832614E-1
3.405554167E0,-1.669480933E-1,5.623366878E-2,1.765625238E-2,1.770469842E-1
3.415482167E0,-1.252133723E-1,6.365509193E-2,5.837216914E-2,1.521107145E-1
3.425411167E0,-1.531731496E-1,5.316198022E-2,5.358329952E-2,1.707611779E-1
3.435339167E0,-1.520078909E-1,6.559263993E-2,2.064827263E-2,1.668386780E-1
3.445268167E0,-1.482639461E-1,3.817687299E-2,3.966049433E-2,1.581538054E-1
3.455196167E0,-1.919734820E-1,6.988868977E-2,4.309924185E-2,2.087960521E-1
3.465125167E0,-9.111715238E-2,6.615158807E-2,8.224693537E-3,1.128982446E-1
3.475053167E0,-1.407013401E-1,4.975583092E-2,-1.228500009E-2,1.497445526E-1
3.484982167E0,-9.651027692E-2,7.602441070E-2,4.399854362E-2,1.304983387E-1
3.494910167E0,-1.082244883E-1,3.995288252E-2,6.001523674E-2,1.300407679E-1
3.504839167E0,-1.048612612E-1,7.966536225E-2,-5.699281096E-3,1.318140199E-1
3.514767167E0,-7.415321946E-2,5.272018653E-2,8.112368524E-2,1.218981966E-1
3.524695167E0,-1.160895689E-1,7.585606570E-2,6.225764394E-2,1.520096870E-1
3.534624167E0,-3.754577570E-2,6.489140346E-2,2.528745353E-2,7.912038183E-2
3.544552167E0,-1.317405187E-1,4.327935437E-2,1.914787710E-2,1.399832418E-1
3.554481167E0,-8.112762298E-2,7.843547353E-2,4.175496697E-2,1.203216189E-1
3.564409167E0,-1.193706700E-1,3.454023376E-2,4.160586298E-2,1.310474435E-1
3.574338167E0,-9.854723671E-2,6.862138800E-2,1.391169548E-2,1.208883287E-1
3.584266167E0,-7.349580056E-2,5.232091307E-2,4.759516597E-2,1.020020121E-1
3.594195167E0,-1.279679682E-1,7.113511515E-2,4.385236323E-2,1.528366293E-1
3.604123167E0,-6.772846336E-2,6.623945162E-2,1.766151488E-2,9.636772700E-2
3.614051167E0,-1.501828470E-1,4.010124648E-2,6.733068824E-3,1.555902687E-1
3.623980167E0,-1.117676725E-1,7.167050083E-2,-1.122606933E-2,1.332467559E-1
3.633908167E0,-9.493779617E-2,4.227754360E-2,4.715136230E-2,1.141219821E-1
3.643837167E0,-7.065645659E-2,8.009408193E-2,3.128377318E-2,1.112927279E-1
3.653765167E0,7.267942876E-3,4.759776981E-2,1.044885743E-1,1.150488281E-1
3.663694167E0,6.242067162E-3,6.517902251E-2,3.487981081E-2,7.418806899E-2
3.673622167E0,1.503640010E-1,8.845252139E-2,4.200055003E-3,1.745016384E-1
3.683551167E0,9.361019500E-2,8.217801131E-2,-7.027768493E-3,1.247617076E-1
3.693479167E0,1.264122160E-1,8.465246161E-2,1.408184946E-2,1.527886975E-1
3.703407167E0,6.791979522E-2,6.583893562E-2,8.994771838E-3,9.501983975E-2
3.713336167E0,2.631868310E-2,7.935895901E-2,-1.034957170E-3,8.361571977E-2
3.723264167E0,4.641781996E-2,7.027261429E-2,6.393871844E-2,1.057403142E-1
3.733193167E0,1.245591237E-2,7.986202969E-2,4.687478900E-2,9.343628515E-2
3.743121167E0,7.783567711E-2,7.588084328E-2,7.517589748E-2,1.321654666E-1
3.753050167E0,2.533214819E-4,4.374273707E-2,2.593474030E-2,5.085373116E-2
3.762978167E0,1.809322212E-2,5.073877528E-2,-5.174201131E-2,7.469286270E-2
3.772907167E0,-4.065323277E-2,2.726627008E-2,-2.224339306E-2,5.376712150E-2
3.782835167E0,-1.082366121E-1,7.172723710E-2,-3.915587962E-2,1.356213245E-1
3.792764167E0,-5.678062099E-2,3.996522563E-2,6.264648378E-2,9.351919647E-2
3.802692167E0,-7.214358626E-2,6.725807313E-2,3.076629460E-2,1.033194576E-1
3.812620167E0,3.104824003E-2,5.204539957E-2,7.553316236E-2,9.683994755E-2
3.822549167E0,-1.903190123E-2,2.953550139E-2,7.374449909E-2,8.168727105E-2
3.832477167E0,3.938631473E-2,5.339361219E-2,-5.602918983E-2,8.684140558E-2
3.842406167E0,1.260255871E-2,2.194471912E-2,-3.042423248E-2,3.957308562E-2
3.852334167E0,1.882931348E-2,4.483682421E-2,-7.712652862E-2,9.117776740E-2
3.862263167E0,6.190361330E-2,3.797939242E-2,1.568749487E-2,7.430066678E-2
3.872191167E0,4.350565989E-2,6.209802409E-2,5.505270481E-2,9.370009255E-2
3.882119167E0,1.324729281E-1,5.303997441E-2,6.643840313E-2,1.574051364E-1
3.892048167E0,1.165535180E-1,3.480492990E-2,-1.289311051E-2,1.223206361E-1
3.901976167E0,1.491113995E-1,4.391361281E-2,-7.530512094E-2,1.727236987E-1
3.911905167E0,8.460038485E-2,1.313145764E-2,-4.925168216E-2,9.876937021E-2
3.921833167E0,6.194158366E-2,4.378438935E-2,-5.733136475E-2,9.508268991E-2
3.931762167E0,1.431673028E-1,3.911694082E-2,1.033846200E-2,1.487746465E-1
3.941690167E0,1.232765918E-1,5.795504339E-2,3.967920542E-2,1.418814452E-1
3.951619167E0,1.602263352E-1,5.787010345E-2,6.378844500E-2,1.819076499E-1
3.961547167E0,7.738738753E-2,4.424096553E-2,3.924885035E-2,9.739888620E-2
3.971475167E0,1.639989222E-1,5.923390254E-2,-7.360416591E-2,1.892666768E-1
3.981404167E0,1.679060134E-1,3.381252036E-2,-7.928005815E-2,1.887353796E-1
3.991332167E0,1.184000505E-1,5.519453634E-2,-4.454291940E-2,1.380184062E-1
4.001261167E0,1.432904415E-1,3.368175287E-2,4.857515931E-2,1.550037329E-1
4.011189167E0,1.961353291E-1,6.071340342E-2,-8.162713051E-4,2.053189006E-1
4.021118167E0,3.279717878E-1,5.611425768E-2,4.829507768E-2,3.362242079E-1
4.031046167E0,2.393948943E-1,6.256147988E-2,3.498096764E-2,2.498950225E-1
4.040974167E0,2.453701274E-1,6.107384772E-2,2.541082978E-2,2.541303299E-1
4.050903167E0,2.755916259E-1,2.495653767E-2,-9.493130028E-2,2.925500382E-1
4.060831167E0,2.409698053E-1,4.854129114E-2,-1.507540834E-1,2.883565460E-1
4.070760167E0,1.789868891E-1,2.993491190E-2,3.517451048E-2,1.848503492E-1
4.080688167E0,1.625834575E-1,4.341680962E-2,1.276914954E-1,2.112427940E-1
4.090617167E0,2.610557036E-1,5.369257850E-2,3.190825582E-2,2.684233786E-1
4.100545167E0,2.122474780E-1,4.417227902E-2,7.518583775E-2,2.294626164E-1
4.110474167E0,3.102253786E-1,6.471331006E-2,2.296493948E-2,3.177341443E-1
4.120402167E0,3.148831610E-1,2.948522447E-2,-4.826759577E-2,3.199227162E-1
4.130330167E0,3.421847610E-1,4.779886834E-2,-8.567515790E-2,3.559710314E-1
4.140259167E0,3.711374686E-1,9.114365671E-3,3.738826632E-2,3.731272902E-1
4.150187167E0,3.220937646E-1,4.146243260E-2,2.667499781E-3,3.247624394E-1
4.160116167E0,3.632143452E-1,4.156786521E-2,6.765170038E-2,3.717920125E-1
4.170044167E0,2.904144090E-1,4.875611236E-2,1.059848768E-1,3.129704164E-1
4.179973167E0,3.522318855E-1,5.720199510E-2,8.340000629E-2,3.664627272E-1
4.189901167E0,3.602338001E-1,2.972618457E-2,-5.264774501E-2,3.652722572E-1
4.199829167E0,4.083794083E-1,5.065871411E-2,-6.655300856E-2,4.168565094E-1
4.209758167E0,4.820635349E-1,3.230303423E-3,-4.260866046E-3,4.820931876E-1
4.219686167E0,4.388881331E-1,2.841780611E-2,2.898640215E-2,4.407613601E-1
4.229615167E0,5.167635439E-1,3.458079882E-2,7.005549073E-3,5.179666685E-1
4.239543167E0,4.496441594E-1,3.440829682E-2,7.198682606E-2,4.566682648E-1
4.249472167E0,4.682615478E-1,6.379921666E-2,1.095762366E-1,4.851249003E-1
4.259400167E0,4.644803727E-1,1.182400195E-2,6.424335837E-2,4.690512049E-1
4.269328167E0,5.174863328E-1,5.213893675E-2,-1.318289852E-1,5.365533102E-1
4.279257167E0,5.885876711E-1,3.074842405E-2,3.555224061E-2,5.904615771E-1
4.289185167E0,5.370014881E-1,2.873000175E-2,5.847449541E-2,5.409392553E-1
4.299114167E0,6.467861049E-1,2.802423368E-2,5.371837020E-2,6.496178003E-1
4.309042167E0,6.265084726E-1,2.191371060E-2,-1.406372309E-2,6.270493324E-1
4.318971167E0,6.476069809E-1,5.587663231E-2,9.883080840E-2,6.574834815E-1
4.328899167E0,6.271076661E-1,2.681582434E-2,9.032954156E-2,6.341470960E-1
4.338828167E0,6.236356625E-1,4.061021919E-2,-6.367383957E-2,6.281918396E-1
4.348756167E0,6.405845480E-1,1.547668448E-2,-3.205326676E-2,6.415726793E-1
4.358682000E0,5.460345958E-1,3.208412910E-3,2.695332527E-2,5.467088397E-1
4.368611000E0,6.174264311E-1,2.603021437E-2,8.177915812E-2,6.233624953E-1
4.378539000E0,6.026251549E-1,1.923962357E-2,7.462567449E-2,6.075329058E-1
4.388468000E0,6.479733089E-1,3.959189918E-2,3.619484961E-2,6.501899682E-1
4.398396000E0,6.583865422E-1,1.417047132E-2,1.134757447E-1,6.682442561E-1
4.408325000E0,6.964248727E-1,2.862833329E-2,-3.303384483E-2,6.977953996E-1
4.418253000E0,7.748415895E-1,2.352398811E-3,-1.158216476E-2,7.749317190E-1
4.428181000E0,7.093188603E-1,2.454124832E-2,-1.005136371E-2,7.098144465E-1
4.438110000E0,7.697798011E-1,1.610404504E-2,5.466152608E-2,7.718861087E-1
4.448038000E0,7.277183669E-1,2.438638846E-2,3.104754567E-2,7.287884930E-1
4.457967000E0,7.478643637E-1,1.748195054E-2,6.686641932E-2,7.510511588E-1
4.467895000E0,7.121835575E-1,1.448515202E-2,1.002902734E-1,7.193562247E-1
4.477824000E0,6.974868733E-1,5.317678099E-2,1.575649202E-2,6.996884846E-1
4.487752000E0,7.163106684E-1,1.180697193E-2,-1.233528614E-2,7.165141573E-1
4.497680000E0,6.818718108E-1,2.186471276E-2,2.588094592E-2,6.827130110E-1
4.507609000E0,7.689929120E-1,6.392249241E-3,2.623002470E-2,7.694666814E-1
4.517537000E0,7.429752874E-1,1.341935992E-2,5.681154728E-2,7.452649924E-1
4.527466000E0,8.140128180E-1,3.304489972E-2,-6.606768966E-3,8.147100605E-1
4.537394000E0,8.041166979E-1,-2.138314887E-2,8.250889063E-2,8.086214318E-1
4.547323000E0,7.798316033E-1,3.329975610E-2,1.339480162E-2,7.806571744E-1
4.557251000E0,7.959906030E-1,2.966484362E-3,1.374563456E-2,7.961148049E-1
4.567179000E0,7.059133688E-1,1.433033785E-2,-1.360413194E-2,7.061898578E-1
4.577108000E0,7.578591556E-1,3.171887912E-2,-8.215337992E-4,7.585230794E-1
4.587036000E0,7.008424442E-1,5.656623831E-3,5.700275123E-2,7.031795237E-1
4.596965000E0,7.721830067E-1,-5.850504711E-4,4.343604147E-2,7.734039228E-1
4.606893000E0,7.842674473E-1,-1.317679184E-3,5.396746159E-2,7.861231787E-1
4.616821000E0,7.863618468E-1,3.789970583E-2,2.961965561E-2,7.878316228E-1
4.626750000E0,8.279230517E-1,5.192391453E-3,7.676809430E-3,8.279749235E-1
4.636678000E0,7.687774421E-1,1.330740402E-2,2.494246781E-2,7.692970618E-1
4.646607000E0,8.200659288E-1,1.084238235E-2,-1.421458125E-2,8.202607751E-1
4.656535000E0,7.849138570E-1,9.056140194E-3,3.448278487E-2,7.857231313E-1
4.666464000E0,8.449856655E-1,4.458069789E-2,9.835016727E-3,8.462180222E-1
4.676392000E0,8.232260565E-1,3.069705991E-3,8.803041637E-2,8.279250675E-1
4.686320000E0,8.246058532E-1,2.975015815E-2,-3.531133533E-3,8.251498978E-1
4.696249000E0,8.907079683E-1,-6.990857944E-3,-4.214673042E-3,8.907453735E-1
4.706177000E0,8.238493697E-1,-1.497709472E-4,-5.505738258E-2,8.256870604E-1
4.716106000E0,8.790570988E-1,2.027268953E-2,4.574978471E-2,8.804802142E-1
4.726034000E0,8.261892061E-1,2.195052065E-2,1.137809694E-2,8.265590667E-1
4.735963000E0,8.956083736E-1,3.554108522E-2,1.623304009E-2,8.964602831E-1
4.745891000E0,8.983400466E-1,7.684821943E-3,4.099307477E-2,8.993076937E-1
4.755819000E0,8.907969922E-1,2.746777061E-2,3.146503687E-2,8.917756491E-1
4.765748000E0,9.316704183E-1,6.936085979E-3,4.635087848E-2,9.328484773E-1
4.775676000E0,9.111544389E-1,2.710178060E-2,-6.600921750E-2,9.139442734E-1
4.785605000E0,9.686136384E-1,1.842820362E-2,-3.764437437E-2,9.695200246E-1
4.795533000E0,8.888837832E-1,1.159237912E-3,2.753103018E-2,8.893107902E-1
4.805461000E0,9.307028503E-1,4.137356406E-2,3.372966349E-2,9.322324053E-1
4.815390000E0,9.718293878E-1,1.441532347E-2,3.888573825E-2,9.727138640E-1
4.825318000E0,9.291873251E-1,2.406686554E-2,-2.631130099E-2,9.298712726E-1
4.835247000E0,9.567375049E-1,-1.034050852E-2,1.078852218E-1,9.628565836E-1
4.845175000E0,9.062554224E-1,1.957520806E-2,-4.773082137E-3,9.064793774E-1
4.855104000E0,9.901050796E-1,3.293072370E-2,-4.166842818E-2,9.915284963E-1
4.865032000E0,8.977803218E-1,1.181062644E-2,-1.121145129E-2,8.979280004E-1
4.874960000E0,9.109479591E-1,3.360073239E-2,3.826125562E-2,9.123700549E-1
4.884889000E0,8.947538761E-1,3.236707952E-3,7.994956434E-2,8.983245003E-1
4.894817000E0,8.932016596E-1,3.236202716E-2,1.161549389E-2,8.938632028E-1
4.904746000E0,8.962984912E-1,6.160416277E-3,2.157564104E-2,8.965793018E-1
4.914674000E0,8.253577320E-1,1.325635965E-2,3.167436719E-2,8.260716570E-1
4.924603000E0,8.975135426E-1,1.765082544E-3,1.678618670E-2,8.976722402E-1
4.934531000E0,8.028962378E-1,-7.721823854E-3,9.675387740E-3,8.029916615E-1
4.944459000E0,8.451061182E-1,4.194070743E-2,4.627603412E-2,8.474106710E-1
4.954388000E0,8.744069543E-1,9.803003222E-3,4.365940511E-2,8.755511203E-1
4.964316000E0,8.324555209E-1,2.905202801E-2,6.483217299E-2,8.354815529E-1
4.974245000E0,8.819326133E-1,-2.042816151E-3,1.126688290E-1,8.891026782E-1
4.984173000E0,8.236544381E-1,4.688425418E-3,-2.362859845E-2,8.240066295E-1
4.994101000E0,8.983397542E-1,1.482826481E-2,4.598835111E-3,8.984738954E-1
5.004030000E0,8.129720137E-1,1.641553718E-2,9.760757089E-3,8.131963092E-1
5.013958000E0,8.696588691E-1,2.367296420E-2,4.217421234E-2,8.710026532E-1
5.023887000E0,8.655386285E-1,-8.471509991E-3,5.034160316E-2,8.670427677E-1
5.033815000E0,8.464392833E-1,1.302408814E-2,1.688325047E-2,8.467078194E-1
5.043744000E0,9.091427044E-1,2.247384645E-2,8.986468792E-2,9.138496555E-1
5.053672000E0,8.625040698E-1,3.611534575E-2,-8.115350604E-3,8.632980062E-1
5.063600000E0,9.102664661E-1,4.500748068E-3,-8.180839419E-3,9.103143535E-1
5.073529000E0,8.601678148E-1,-1.052076722E-2,-2.921151996E-2,8.607279878E-1
5.083457000E0,8.927262810E-1,2.553137379E-2,-5.187065005E-3,8.931063595E-1
5.093386000E0,8.828754768E-1,1.654227558E-2,8.905192494E-2,8.875094364E-1
5.103314000E0,8.354016405E-1,3.529472558E-2,2.057167411E-2,8.363999118E-1
5.113242000E0,9.076777576E-1,-8.581510736E-3,5.912938356E-2,9.096421483E-1
5.123171000E0,8.290078564E-1,2.875105172E-2,5.336695254E-2,8.312211983E-1
5.133099000E0,8.663183548E-1,2.450223642E-2,-1.375499010E-2,8.667739331E-1
5.143028000E0,7.962935619E-1,-2.360904682E-4,5.939601660E-3,7.963157485E-1
5.152956000E0,8.295322055E-1,1.938428733E-2,-3.738417327E-2,8.306003894E-1
5.162885000E0,8.202842492E-1,-1.587770297E-2,7.960399389E-2,8.242906931E-1
5.172813000E0,7.788654971E-1,3.613188241E-2,4.241043985E-2,7.808556979E-1
5.182741000E0,8.209192568E-1,3.333816499E-2,7.618044913E-2,8.251201853E-1
5.192670000E0,7.822967894E-1,9.376193024E-3,1.802755058E-2,7.825606509E-1
5.202598000E0,8.132806735E-1,-2.792648468E-2,-5.378268957E-3,8.137777757E-1
5.212527000E0,7.467143626E-1,-1.169362731E-2,-1.038407028E-2,7.468781086E-1
5.222455000E0,7.976562555E-1,2.568894711E-2,1.765859127E-4,7.980698310E-1
5.232383000E0,7.945601548E-1,-9.942541542E-3,7.146466970E-3,7.946544946E-1
5.242312000E0,7.403172894E-1,5.871664323E-3,8.656276524E-2,7.453839801E-1
5.252240000E0,7.566169146E-1,-3.474613798E-2,1.854093611E-2,7.576412185E-1
5.262169000E0,6.715139799E-1,3.245561915E-2,5.932643473E-2,6.749103779E-1
5.272097000E0,7.196524984E-1,5.606895089E-2,-1.033319950E-2,7.219073491E-1
5.282025000E0,6.549127114E-1,-1.586468378E-3,8.759129047E-3,6.549732046E-1
5.291954000E0,6.531294568E-1,5.660314886E-3,1.362225831E-2,6.532960220E-1
5.301882000E0,6.357186413E-1,1.994943900E-2,8.960565627E-2,6.423124976E-1
5.311811000E0,6.573892996E-1,7.307319305E-2,6.107884526E-2,6.642522172E-1
5.321739000E0,6.873398345E-1,1.979422283E-2,8.003493369E-2,6.922668921E-1
5.331667000E0,6.185496081E-1,-6.967277220E-3,3.070665300E-2,6.193505140E-1
5.341596000E0,6.919980919E-1,3.511554496E-3,8.691944540E-2,6.974443922E-1
5.351524000E0,6.268463686E-1,3.329483164E-2,-4.189530015E-2,6.291264832E-1
5.361449875E0,6.671661365E-1,6.471984250E-2,3.107151926E-2,6.710176980E-1
5.371377875E0,6.271658459E-1,-4.581521871E-3,-1.196515739E-2,6.272967030E-1
5.381306875E0,5.711274832E-1,2.453592187E-3,4.252095222E-3,5.711485818E-1
5.391234875E0,6.140592389E-1,-1.215747597E-2,6.181033194E-2,6.172820022E-1
5.401162875E0,5.292666451E-1,-8.979870575E-3,3.058561563E-2,5.302257062E-1
5.411091875E0,5.779519879E-1,2.599554221E-2,1.884440660E-2,5.788431395E-1
5.421019875E0,5.305948767E-1,2.412117155E-2,6.621270061E-2,5.352540292E-1
5.430948875E0,5.895050262E-1,5.489381586E-2,3.933889747E-2,5.933608142E-1
5.440876875E0,6.125525941E-1,1.923727554E-2,7.848191321E-2,6.178593400E-1
5.450804875E0,5.678313712E-1,2.981624996E-2,-2.563711703E-2,5.691913006E-1
5.460733875E0,5.723817110E-1,-2.024073998E-2,6.738448262E-2,5.766898465E-1
5.470661875E0,4.708170369E-1,-1.533357387E-2,4.571937919E-3,4.710888487E-1
5.480590875E0,5.328987527E-1,3.473607894E-2,-4.938558340E-3,5.340524929E-1
5.490518875E0,4.682927939E-1,2.433138809E-2,3.583758473E-2,4.702919197E-1
5.500446875E0,4.924358742E-1,3.297294242E-2,9.999908209E-3,4.936398518E-1
5.510375875E0,5.149175779E-1,1.678618670E-2,7.248968661E-2,5.202659346E-1
5.520303875E0,5.337857388E-1,2.704170959E-2,-2.055003941E-2,5.348651915E-1
5.530232875E0,5.969013520E-1,-5.168582322E-3,-7.454615235E-3,5.969702753E-1
5.540160875E0,4.908269398E-1,9.320827201E-5,3.076863348E-2,4.917904048E-1
5.550088875E0,5.164972032E-1,3.551909421E-4,8.975476027E-4,5.164981052E-1
5.560017875E0,4.458066683E-1,2.507181005E-2,1.403916478E-3,4.465133281E-1
5.569945875E0,3.687437281E-1,6.944277562E-2,3.544348240E-2,3.768958431E-1
5.579874875E0,3.479839930E-1,2.483429432E-2,1.483725125E-1,3.791094881E-1
5.589802875E0,4.144971308E-1,-2.321567539E-2,-2.535586596E-2,4.159203758E-1
5.599731875E0,4.753224627E-1,-9.957717807E-2,-3.426176012E-2,4.868479497E-1
5.609659875E0,3.982997222E-1,-3.194754180E-2,1.303075397E-1,4.202896252E-1
5.619587875E0,5.089485574E-1,5.919290808E-2,1.070350367E-1,5.234395223E-1
5.629516875E0,5.263715059E-1,6.661312524E-2,9.801102877E-3,5.306602795E-1
5.639444875E0,4.923033617E-1,8.186732316E-3,2.233636379E-3,4.923764938E-1
5.649373875E0,4.507900675E-1,-3.626892652E-2,1.388111454E-1,4.730704536E-1
5.659301875E0,4.159453399E-1,5.720476340E-2,6.833640933E-3,4.199161933E-1
5.669229875E0,4.872125930E-1,4.365924066E-2,-4.068785012E-2,4.908540937E-1
5.679158875E0,4.070822401E-1,1.619271258E-2,2.239366651E-2,4.080191545E-1
5.689086875E0,4.477269670E-1,4.808138022E-3,7.052034438E-2,4.532721855E-1
5.699015875E0,4.470599824E-1,3.605528388E-2,1.730074167E-2,4.488451036E-1
5.708943875E0,4.970515932E-1,8.530019606E-2,-7.423332632E-2,5.097518970E-1
5.718871875E0,4.808235598E-1,3.482265428E-2,6.715117872E-2,4.867372943E-1
5.728800875E0,4.284598798E-1,4.403175398E-2,4.490369260E-2,4.330508118E-1
5.738728875E0,4.940863605E-1,4.145441095E-2,9.660769701E-3,4.959164549E-1
5.748657875E0,4.097682317E-1,3.428019712E-2,-2.126632333E-2,4.117491860E-1
5.758585875E0,4.433295685E-1,4.262379927E-2,7.520688772E-2,4.516790570E-1
5.768513875E0,3.818778170E-1,4.253767161E-2,6.763591290E-2,3.901470714E-1
5.778442875E0,4.218835529E-1,6.445565798E-2,-3.468217492E-2,4.281858444E-1
5.788370875E0,4.410153136E-1,2.587643260E-2,6.972629249E-2,4.472424985E-1
5.798299875E0,4.269211119E-1,9.248778541E-3,4.089308739E-2,4.289748481E-1
5.808227875E0,4.805556111E-1,1.124961351E-2,5.384642422E-2,4.836937942E-1
5.818155875E0,4.338972787E-1,1.993224453E-2,2.052898943E-2,4.348397202E-1
5.828084875E0,4.747582064E-1,4.257027897E-2,3.767419517E-2,4.781494831E-1
5.838012875E0,3.950466968E-1,4.664387880E-3,4.133747578E-2,3.972309607E-1
5.847941875E0,3.892919037E-1,2.772931474E-2,-6.502688527E-3,3.903324047E-1
5.857869875E0,4.094292028E-1,9.080369594E-3,2.590784311E-2,4.103485611E-1
5.867797875E0,3.477112569E-1,4.286707998E-2,2.088099182E-2,3.509654122E-1
5.877726875E0,3.970791890E-1,1.835990997E-2,1.203538245E-1,4.153239840E-1
5.887654875E0,3.395141914E-1,1.459660543E-2,3.748942316E-2,3.418894616E-1
5.897583875E0,4.329365081E-1,-1.589410258E-2,4.969548583E-2,4.360691274E-1
5.907511875E0,3.756010868E-1,-2.306769515E-2,2.177853942E-2,3.769384562E-1
5.917439875E0,3.937474090E-1,1.802163027E-2,1.646225095E-2,3.945032407E-1
5.927368875E0,3.923949846E-1,5.705557717E-3,1.038015264E-1,4.059324256E-1
5.937296875E0,3.576553973E-1,1.049799048E-2,4.772906721E-2,3.609787457E-1
5.947225875E0,3.920442978E-1,-2.276814412E-3,4.466629565E-2,3.945871175E-1
5.957153875E0,3.070191675E-1,1.524618541E-2,1.458880305E-3,3.074009495E-1
5.967081875E0,3.744338730E-1,4.667470459E-2,7.307733178E-2,3.843430105E-1
5.977010875E0,3.349490875E-1,-1.877847011E-2,7.194063306E-2,3.431019919E-1
5.986938875E0,3.666359896E-1,-5.358068654E-3,2.126047611E-2,3.672909822E-1
5.996867875E0,3.848238270E-1,-6.234995686E-3,3.346010685E-2,3.863260692E-1
6.006795875E0,3.578251858E-1,1.276180398E-2,-1.483321667E-2,3.583598074E-1
6.016723875E0,4.493044361E-1,-1.310004713E-3,8.149790704E-2,4.566378229E-1
6.026652875E0,3.624533666E-1,-4.235530243E-2,4.982295513E-2,3.683052287E-1
6.036580875E0,4.168536684E-1,-8.801630996E-3,-1.642073572E-2,4.172698049E-1
6.046509875E0,3.679643674E-1,1.251476825E-2,3.603755951E-2,3.699366173E-1
6.056437875E0,4.054766312E-1,3.827157048E-2,3.911787271E-3,4.072975738E-1
6.066365875E0,4.182531263E-1,-9.836295806E-3,4.094746649E-2,4.203678454E-1
6.076294875E0,3.480118038E-1,-1.858421464E-2,-6.897375584E-3,3.485759062E-1
6.086222875E0,4.032118584E-1,-2.039824021E-2,3.523882985E-2,4.052624657E-1
6.096151875E0,3.976907347E-1,3.439555172E-2,2.871450663E-2,4.002068182E-1
6.106079875E0,4.354293954E-1,4.864264897E-2,1.337024331E-2,4.383419089E-1
6.116007875E0,3.873048371E-1,-1.241248766E-2,5.348448157E-3,3.875405948E-1
6.125936875E0,4.111352011E-1,-1.612980019E-2,1.484198749E-2,4.117190894E-1
6.135864875E0,4.177497542E-1,-3.421381295E-2,5.158179760E-2,4.223104592E-1
6.145793875E0,3.570439247E-1,2.268765355E-2,-1.376434565E-2,3.580287014E-1
6.155721875E0,3.808682952E-1,1.963750832E-4,1.430287421E-2,3.811368115E-1
6.165649875E0,3.731758080E-1,2.521034338E-2,6.286283076E-2,3.792723040E-1
6.175578875E0,4.017609449E-1,3.272505702E-2,-1.610030830E-2,4.034129474E-1
6.185506875E0,3.498126366E-1,1.288330729E-2,9.743273914E-2,3.633565728E-1
6.195434875E0,3.767040179E-1,4.008318407E-2,-5.937438190E-2,3.834552072E-1
6.205363875E0,3.852316337E-1,-1.777721666E-2,2.063657820E-2,3.861933576E-1
6.215291875E0,3.456956120E-1,3.186208108E-2,7.364568114E-3,3.472389455E-1
6.225220875E0,4.003302775E-1,-7.074171631E-3,3.273446739E-2,4.017286650E-1
6.235148875E0,3.364958587E-1,2.486303704E-2,3.292684078E-2,3.390159442E-1
6.245076875E0,3.883921269E-1,2.667397454E-2,5.246180356E-2,3.928258978E-1
6.255005875E0,3.489067932E-1,2.172082557E-2,7.770364881E-3,3.496685905E-1
6.264933875E0,3.707173096E-1,1.183887580E-2,4.556091964E-2,3.736940995E-1
6.274862875E0,3.800810407E-1,3.235337511E-3,-1.739020407E-2,3.804924232E-1
6.284790875E0,3.552064372E-1,3.216552417E-2,3.775664091E-2,3.586527539E-1
6.294718875E0,4.158241929E-1,2.873057733E-2,1.007475257E-3,4.168167709E-1
6.304647875E0,3.560152167E-1,-1.247631367E-3,4.417922258E-2,3.587480939E-1
6.314575875E0,4.217506018E-1,1.753451153E-2,5.083744705E-2,4.251652329E-1
6.324504875E0,3.880372375E-1,8.231810695E-3,7.424619019E-2,3.951621909E-1
6.334432875E0,3.852499428E-1,2.530690466E-2,5.003462434E-3,3.861126682E-1
6.344360875E0,4.076131307E-1,5.761535671E-3,7.037708759E-3,4.077145926E-1
6.354289875E0,3.889777255E-1,1.003039596E-2,-2.374320388E-2,3.898307576E-1
6.364217042E0,4.461992723E-1,1.523921443E-2,1.091201538E-1,4.596011664E-1
6.374146042E0,3.646588633E-1,-6.012984216E-3,-1.101732373E-2,3.648748059E-1
6.384074042E0,4.349846781E-1,2.860432316E-2,1.899760365E-2,4.363379269E-1
6.394002042E0,3.767166625E-1,2.823455986E-3,4.196897507E-2,3.790577932E-1
6.403931042E0,3.736040800E-1,3.209014077E-2,8.050154150E-2,3.835235115E-1
6.413859042E0,3.908986090E-1,1.368867902E-2,7.340477586E-2,3.979665357E-1
6.423787042E0,3.629139445E-1,2.084402645E-2,-5.331023455E-2,3.674003071E-1
6.433716042E0,4.156502383E-1,-2.259059890E-2,8.673058033E-2,4.252030683E-1
6.443644042E0,3.719289623E-1,-6.898289211E-3,1.233189476E-1,3.919008832E-1
6.453573042E0,4.124488877E-1,3.366746373E-2,2.205862105E-2,4.144082116E-1
6.463501042E0,3.766185389E-1,-2.644284507E-3,5.012701035E-2,3.799489877E-1
6.473429042E0,3.909596758E-1,1.457747407E-2,1.169653630E-1,4.083416058E-1
6.483358042E0,3.963039213E-1,-2.949954101E-2,8.619965315E-2,4.066416127E-1
6.493286042E0,3.495472826E-1,1.896791990E-2,-1.162718832E-2,3.502545878E-1
6.503215042E0,4.285802959E-1,4.127678351E-2,6.750142694E-2,4.358225390E-1
6.513143042E0,3.712320473E-1,-7.121470124E-3,7.834801197E-2,3.794764278E-1
6.523071042E0,4.141675306E-1,-2.612642848E-2,2.859522343E-2,4.159747834E-1
6.533000042E0,3.557113808E-1,-3.859395306E-2,4.716364145E-3,3.578300207E-1
6.542928042E0,4.005828406E-1,2.951679943E-2,7.468882442E-2,4.085538816E-1
6.552857042E0,4.037251343E-1,1.568655384E-2,5.276878238E-2,4.074611594E-1
6.562785042E0,3.438876895E-1,1.075403458E-3,2.126690805E-2,3.445463406E-1
6.572713042E0,3.766798616E-1,-3.487453004E-2,5.817687213E-2,3.827381604E-1
6.582642042E0,3.497783207E-1,4.885604493E-3,5.779271007E-2,3.545542837E-1
6.592570042E0,4.190542680E-1,3.767212124E-2,4.755423546E-2,4.234230432E-1
6.602498042E0,3.726710105E-1,2.938527362E-3,5.079359293E-2,3.761280448E-1
6.612427042E0,3.757143036E-1,1.048752945E-4,2.033895493E-2,3.762644309E-1
6.622355042E0,3.993556197E-1,-4.003201179E-2,4.482358575E-2,4.038522339E-1
6.632284042E0,3.358671003E-1,-3.407355286E-3,2.034480214E-2,3.364999705E-1
6.642212042E0,4.024428034E-1,-1.491387170E-2,9.647788882E-2,4.141142555E-1
6.652140042E0,2.868180242E-1,-7.906612314E-2,1.410096985E-1,3.292411971E-1
6.662069042E0,3.325630946E-1,-4.492747433E-2,1.602528852E-1,3.718839564E-1
6.671997042E0,3.239124679E-1,1.075916003E-2,1.745610219E-1,3.681122068E-1
6.681926042E0,3.432995327E-1,7.646560139E-2,2.779766321E-2,3.528091090E-1
6.691854042E0,3.860487456E-1,8.676527990E-3,6.770900309E-2,3.920375304E-1
6.701782042E0,4.109070135E-1,-2.725091200E-2,-4.013938129E-2,4.137612305E-1
6.711711042E0,4.650246389E-1,-2.389478381E-2,-4.798283637E-2,4.681038646E-1
6.721639042E0,3.628847815E-1,5.192404244E-2,-1.468235850E-2,3.668746959E-1
6.731567042E0,3.796419514E-1,1.336504020E-1,1.042511773E-1,4.157628521E-1
6.741496042E0,3.304199073E-1,1.733021347E-1,1.266243786E-1,3.940110129E-1
6.751424042E0,2.967536496E-1,1.807469741E-1,9.480500042E-2,3.601668853E-1
6.761353042E0,2.902499743E-1,1.356459197E-1,1.086547154E-1,3.383056463E-1
6.771281042E0,2.561011386E-1,6.854120806E-2,1.966067791E-2,2.658424959E-1
6.781209042E0,3.710400759E-1,-3.898573478E-2,1.991269290E-2,3.736136250E-1
6.791138042E0,3.626221319E-1,-8.374699286E-2,2.718136668E-2,3.731584061E-1
6.801066042E0,4.223620013E-1,-4.671706036E-3,-4.155031443E-3,4.224082732E-1
6.810995042E0,3.750538971E-1,4.186090208E-2,2.090689498E-1,4.314250649E-1
6.820923042E0,3.645075666E-1,8.688313784E-2,9.388406396E-2,3.863012596E-1
6.830851042E0,3.255128874E-1,-3.963028067E-2,-2.458812654E-2,3.288370036E-1
6.840780042E0,2.596275212E-1,-4.076468619E-2,4.147839367E-2,2.660613962E-1
6.850708042E0,3.142612365E-1,-1.250787950E-2,1.165385163E-1,3.354069134E-1
6.860636042E0,2.949293183E-1,8.011916100E-2,1.349987608E-1,3.341063426E-1
6.870565042E0,4.201129429E-1,1.650711006E-1,9.990611136E-2,4.623035627E-1
6.880493042E0,4.103632955E-1,9.194766713E-2,9.908457756E-2,4.320534241E-1
6.890422042E0,3.913917851E-1,4.089901683E-2,8.522492230E-2,4.026456834E-1
6.900350042E0,4.245460095E-1,-2.154222054E-2,8.127571285E-2,4.327922399E-1
6.910278042E0,3.553771028E-1,-4.079657178E-3,-3.885474801E-2,3.575181397E-1
6.920207042E0,3.452446090E-1,-1.485325252E-2,-6.181968749E-2,3.510500433E-1
6.930135042E0,2.548789608E-1,-6.206612935E-2,4.376757860E-2,2.659531726E-1
6.940064042E0,3.302829728E-1,-5.558376904E-2,1.091107982E-1,3.522521310E-1
6.949992042E0,3.319927718E-1,-5.582028891E-2,1.449577385E-1,3.665349248E-1
6.959920042E0,3.820854297E-1,4.574178133E-2,1.155497521E-1,4.017876695E-1
6.969849042E0,3.946510962E-1,4.338145223E-2,4.932886541E-2,4.000809606E-1
6.979777042E0,3.477363999E-1,6.438344487E-2,-2.260650516E-2,3.543682913E-1
6.989705042E0,3.596873778E-1,1.345718410E-3,4.020779371E-2,3.619302245E-1
6.999634042E0,2.341849338E-1,-5.742262700E-2,-8.996935308E-2,2.573604977E-1
7.009562042E0,2.618093001E-1,4.799848680E-2,6.355338693E-3,2.662486708E-1
7.019491042E0,1.682052447E-1,2.204371065E-1,5.790322244E-2,2.832636677E-1
7.029419042E0,1.864020722E-1,2.966794630E-1,1.712871659E-1,3.900047813E-1
7.039347042E0,2.545738093E-1,1.229505730E-1,9.519150138E-2,2.983053632E-1
7.049276042E0,2.766212475E-1,-1.841920439E-2,-5.309388757E-2,2.822721073E-1
7.059204042E0,3.887908705E-1,-6.442544432E-3,-9.328472435E-2,3.998773401E-1
7.069132042E0,3.862243813E-1,3.650277860E-2,-1.344801128E-2,3.881785344E-1
7.079061042E0,4.686452714E-1,5.008353082E-2,7.448534131E-2,4.771633017E-1
7.088989042E0,3.565748318E-1,-9.326212121E-2,1.104597509E-1,3.847658905E-1
7.098918042E0,2.836778866E-1,-3.695179909E-2,1.348964345E-1,3.162840920E-1
7.108846042E0,2.420847414E-1,4.809962536E-2,1.392754143E-1,2.834011944E-1
7.118774042E0,1.520200056E-1,1.280660187E-1,-1.800883949E-2,1.995878392E-1
7.128703042E0,1.994263065E-1,7.107778503E-2,3.311395168E-2,2.142882102E-1
7.138631042E0,1.474489447E-1,-1.712794731E-2,4.934640706E-2,1.564277014E-1
7.148559042E0,2.243502094E-1,-1.824287429E-2,3.280463398E-2,2.274685977E-1
7.158488042E0,2.001716072E-1,4.212427346E-2,-4.763843536E-2,2.100298723E-1
7.168416042E0,1.459437983E-1,9.116380219E-2,1.501097202E-2,1.727303111E-1
7.178345042E0,1.822908948E-1,4.910371106E-2,1.028098387E-1,2.149674573E-1
7.188273042E0,1.592324730E-1,-3.898047228E-2,9.056109130E-2,1.872852609E-1
7.198201042E0,1.546910137E-1,-7.166278982E-2,1.108281255E-1,2.033414335E-1
7.208130042E0,8.625702895E-2,-2.065439394E-2,1.735763508E-1,1.949246741E-1
7.218058042E0,1.997341624E-1,2.533105183E-2,1.074718237E-1,2.282226779E-1
7.227986042E0,1.765863512E-1,2.952800964E-2,6.111626744E-2,1.891820312E-1
7.237915042E0,1.564073908E-1,2.861520446E-2,5.531524479E-2,1.683504622E-1
7.247843042E0,2.026701225E-1,5.519031538E-3,7.034317374E-2,2.146014919E-1
7.257772042E0,1.666074199E-1,6.150030160E-2,-1.031191564E-1,2.053628006E-1
7.267700042E0,2.394904780E-1,6.529715454E-2,-1.339538634E-2,2.485937324E-1
7.277628042E0,1.576080434E-1,4.556235404E-2,8.977230191E-2,1.870168165E-1
7.287557042E0,2.335035869E-1,4.065863231E-2,2.693344474E-2,2.385423651E-1
7.297485042E0,2.339660286E-1,9.385694750E-5,7.548170686E-2,2.458405976E-1
7.307413042E0,2.297363721E-1,4.966762933E-2,1.895024121E-2,2.358066702E-1
7.317342042E0,2.669229095E-1,3.992176437E-2,5.987139523E-2,2.764528365E-1
7.327270042E0,2.301104477E-1,3.575324778E-2,6.739500761E-2,2.424277210E-1
7.337199042E0,2.721117286E-1,1.780402249E-2,-5.448435545E-3,2.727479817E-1
7.347127042E0,2.260915102E-1,1.686684173E-3,1.344625711E-2,2.264972797E-1
7.357055042E0,2.527613186E-1,5.716767012E-2,-3.470497906E-2,2.614591025E-1
7.366984417E0,2.352177713E-1,4.584809102E-2,6.101978838E-2,2.472910471E-1
7.376912417E0,2.432110613E-1,4.688595353E-2,9.341219366E-2,2.647182481E-1
7.386840417E0,3.158554798E-1,2.109040436E-2,1.169840741E-1,3.374829816E-1
7.396769417E0,2.477941089E-1,3.202606807E-2,-3.490203023E-2,2.522810757E-1
7.406697417E0,3.060344233E-1,7.877259292E-2,4.375529945E-2,3.190246321E-1
7.416626417E0,2.516300286E-1,6.159841605E-2,8.646570146E-2,2.731086847E-1
7.426554417E0,2.986511441E-1,2.663803244E-2,4.508203268E-3,2.998706631E-1
7.436482417E0,2.818229306E-1,-3.768174173E-3,-1.877424002E-2,2.824727162E-1
7.446411417E0,3.331166797E-1,-9.335015835E-3,1.003031373E-2,3.333983683E-1
7.456339417E0,3.213693311E-1,8.169135852E-2,1.069601923E-1,3.484138456E-1
7.466267417E0,2.498344217E-1,1.413255212E-1,3.322621822E-2,2.889534959E-1
7.476196417E0,3.692743995E-1,5.813758615E-2,2.237554014E-2,3.744919570E-1
7.486124417E0,3.011866430E-1,3.254048601E-2,3.487103999E-2,3.049397754E-1
7.496053417E0,2.725184756E-1,2.601760631E-2,9.631241262E-2,2.902056447E-1
7.505981417E0,2.615307534E-1,5.764728799E-2,1.577648950E-1,3.108235944E-1
7.515909417E0,2.960122226E-1,1.322947982E-1,-2.836601257E-2,3.254685549E-1
7.525838417E0,3.228530621E-1,9.886119565E-2,5.107367456E-2,3.414910774E-1
7.535766417E0,2.232089791E-1,2.132427654E-1,1.343836337E-1,3.366803920E-1
7.545694417E0,2.923210216E-1,2.215582370E-1,1.039348429E-1,3.812375685E-1
7.555623417E0,3.082778538E-1,1.173844988E-1,1.236230028E-1,3.522740446E-1
7.565551417E0,3.530962501E-1,5.331578027E-2,1.489929020E-2,3.574094615E-1
7.575480417E0,2.600317466E-1,-1.173152458E-2,1.040354151E-1,2.803167948E-1
7.585408417E0,2.821605342E-1,9.476708489E-2,1.332907891E-1,3.261315715E-1
7.595336417E0,3.549365882E-1,1.254125979E-1,3.741282463E-2,3.782962078E-1
7.605265417E0,3.060243369E-1,1.373086760E-1,2.970268607E-2,3.367295901E-1
7.615193417E0,3.425539396E-1,8.014176414E-2,1.302204162E-1,3.751309914E-1
7.625121417E0,2.925943789E-1,3.925022079E-2,5.362949252E-2,3.000469511E-1
7.635050417E0,2.940409800E-1,7.922657439E-3,3.978913307E-2,2.968266187E-1
7.644978417E0,2.482112347E-1,-1.172698385E-2,-1.027706623E-2,2.487005373E-1
7.654906417E0,2.381560703E-1,-3.170135574E-2,-3.447693765E-2,2.427178382E-1
7.664835417E0,2.539297385E-1,-1.367732263E-2,-1.388479829E-2,2.546765966E-1
7.674763417E0,2.487514443E-1,8.082432607E-2,2.165282428E-2,2.624475138E-1
7.684692417E0,3.766771938E-1,7.704043751E-2,1.120221269E-1,4.004621009E-1
7.694620417E0,2.921255784E-1,-1.847984185E-2,8.348888397E-2,3.043833961E-1
7.704548417E0,3.161539802E-1,-2.751497774E-2,1.398496109E-1,3.467972417E-1
7.714477417E0,2.780001672E-1,-4.825844122E-2,9.052483857E-2,2.963236685E-1
7.724405417E0,2.189401462E-1,2.340031036E-2,-1.107415867E-1,2.464671604E-1
7.734333417E0,1.900195983E-1,4.587979389E-2,1.612369716E-2,1.961437657E-1
7.744262417E0,1.299178959E-1,6.119766251E-2,-5.463287473E-2,1.536507877E-1
7.754190417E0,2.533776151E-1,6.180406446E-2,2.836016536E-2,2.623437768E-1
7.764119417E0,2.483398003E-1,3.229088299E-2,8.022262931E-2,2.629658301E-1
7.774047417E0,3.505703261E-1,6.398107421E-2,7.760541558E-2,3.647132187E-1
7.783975417E0,3.535874163E-1,9.675138320E-2,3.635798693E-2,3.683840310E-1
7.793904417E0,3.319680673E-1,7.709548356E-2,-5.579179287E-2,3.453393048E-1
7.803832417E0,2.912846026E-1,2.946568198E-2,-7.113488674E-2,3.012890941E-1
7.813760417E0,1.948628470E-1,7.570967518E-2,-8.068338990E-2,2.240832289E-1
7.823689417E0,2.538261697E-1,1.070670959E-1,5.679692924E-2,2.812774051E-1
7.833617417E0,1.546023553E-1,8.148423918E-2,2.841746807E-2,1.770568326E-1
7.843545417E0,2.068466424E-1,2.812021025E-2,6.576538861E-2,2.188638071E-1
7.853474417E0,2.586789932E-1,6.529325335E-2,1.769092637E-1,3.201170381E-1
7.863402417E0,2.833470073E-1,1.156177443E-1,-4.845587611E-2,3.098402190E-1
7.873331417E0,3.315215593E-1,6.404653561E-2,-2.426711440E-2,3.385223712E-1
7.883259417E0,2.595647002E-1,-9.735952104E-3,-7.750659764E-2,2.710643743E-1
7.893187417E0,3.027661221E-1,-9.590128027E-3,-7.832345366E-3,3.030192088E-1
7.903116417E0,2.435044453E-1,4.983284058E-2,1.008855200E-1,2.682454381E-1
7.913044417E0,2.958026730E-1,9.672211058E-2,8.898351252E-2,3.236857327E-1
7.922972417E0,2.494007776E-1,4.438569325E-2,3.439449191E-2,2.556439295E-1
7.932901417E0,2.474315085E-1,3.761703864E-2,6.289323628E-2,2.580561027E-1
7.942829417E0,2.802107801E-1,3.251718851E-2,-7.218563139E-2,2.911807243E-1
7.952757417E0,2.240554366E-1,1.802220586E-2,-1.257063657E-1,2.575417033E-1
7.962686417E0,2.694934916E-1,9.834368052E-3,-3.549669206E-2,2.719990294E-1
7.972614417E0,1.798740213E-1,6.009943664E-2,5.137831450E-2,1.964849537E-1
7.982543417E0,2.495681541E-1,1.070151105E-1,4.981827736E-2,2.760767252E-1
7.992471417E0,2.092075288E-1,5.492708104E-2,5.423467934E-2,2.229936654E-1
8.002399417E0,1.938238699E-1,8.555354496E-2,6.403227389E-2,2.213305982E-1
8.012328417E0,2.425520801E-1,6.873682483E-2,7.987296581E-3,2.522301718E-1
8.022256417E0,2.115312854E-1,7.209517314E-2,-1.277189773E-1,2.574011186E-1
8.032184417E0,2.565430784E-1,6.192706612E-2,-8.809298158E-2,2.782259621E-1
8.042113417E0,2.075292318E-1,7.477306087E-2,8.822863698E-3,2.207651141E-1
8.052041417E0,2.717372876E-1,1.064666142E-1,9.062482595E-2,3.055963882E-1
8.061969417E0,2.188916143E-1,6.555374681E-2,2.200950444E-2,2.295544616E-1
8.071898417E0,2.000827295E-1,5.794055326E-2,5.760092139E-3,2.083827849E-1
8.081826417E0,2.382954533E-1,6.583497047E-2,7.789660692E-3,2.473451944E-1
8.091755417E0,1.894308568E-1,9.466575447E-2,-9.408462346E-2,2.317273634E-1
8.101683417E0,2.288677682E-1,-1.037570145E-3,-5.462527335E-2,2.352986450E-1
8.111611417E0,1.768045255E-1,-9.366024351E-3,-2.387184262E-2,1.786544920E-1
8.121540417E0,2.438750126E-1,6.020967493E-2,2.591953754E-2,2.525312835E-1
8.131468417E0,2.450200436E-1,9.346052455E-2,1.188288707E-1,2.879062207E-1
8.141396417E0,2.552479202E-1,1.232017200E-1,4.946744442E-2,2.877102581E-1
8.151325417E0,2.956497683E-1,5.732074840E-2,-6.262952685E-3,3.012203152E-1
8.161253417E0,2.726347621E-1,3.459732634E-2,-9.823790073E-2,2.918516295E-1
8.171181417E0,3.445908903E-1,-4.534214241E-2,-7.837900221E-2,3.562892919E-1
8.181110417E0,2.840785671E-1,-2.778148287E-2,-1.495776236E-2,2.858254323E-1
8.191038417E0,3.304356582E-1,1.540501040E-2,2.212001681E-2,3.315333071E-1
8.200967417E0,3.389524933E-1,3.095981916E-2,8.793686092E-2,3.515397483E-1
8.210895417E0,3.458126660E-1,8.614144594E-2,5.494570076E-2,3.605908744E-1
8.220823417E0,3.783204076E-1,3.153770680E-2,2.977285266E-2,3.807983462E-1
8.230752417E0,2.940530399E-1,1.051650971E-2,-9.258188903E-2,3.084626289E-1
8.240680417E0,3.653223395E-1,-3.218596201E-2,-9.468864083E-2,3.787641570E-1
8.250608417E0,2.821019159E-1,-3.199839430E-2,-1.084939170E-1,3.039347269E-1
8.260537417E0,3.535273361E-1,2.364953879E-2,-4.385411739E-4,3.543177534E-1
8.270465417E0,3.467246123E-1,2.632871473E-2,7.842168689E-2,3.564563353E-1
8.280393417E0,3.867827173E-1,3.701450134E-2,6.085782051E-2,3.932869411E-1
8.290322417E0,4.380190176E-1,3.022867966E-2,6.997538388E-2,4.446020549E-1
8.300250417E0,3.832596237E-1,1.015297735E-2,-1.897421479E-2,3.838633128E-1
8.310178417E0,4.426744245E-1,1.769486228E-2,-2.631305516E-2,4.438086650E-1
8.320107417E0,3.602202053E-1,-3.975945845E-2,-6.169280291E-2,3.676212899E-1
8.330035417E0,4.001015051E-1,1.381812176E-2,-4.657307267E-2,4.030399558E-1
8.339964417E0,3.368923730E-1,5.551145542E-3,6.312361658E-2,3.428000543E-1
8.349892417E0,3.390675373E-1,5.550383577E-2,3.883954525E-2,3.457686812E-1
8.359820417E0,3.824969275E-1,4.376882114E-2,1.481146502E-1,4.125015865E-1
8.369752542E0,3.347843056E-1,-1.919036077E-2,-1.117636800E-2,3.355200626E-1
8.379680542E0,3.897594617E-1,-2.233367773E-2,1.097463906E-2,3.905530359E-1
8.389608542E0,3.477105991E-1,-1.963096675E-2,2.247143447E-2,3.489885398E-1
8.399537542E0,4.025726116E-1,5.678943750E-3,-2.080497801E-2,4.031498544E-1
8.409465542E0,3.511948087E-1,6.178972051E-3,6.929827631E-2,3.580198660E-1
8.419393542E0,3.187757986E-1,3.369441574E-2,7.211254120E-2,3.285628433E-1
8.429322542E0,3.334328679E-1,3.346880458E-2,1.666976863E-1,3.742803186E-1
8.439250542E0,2.797587904E-1,4.585477877E-3,1.150118083E-1,3.025123525E-1
8.449178542E0,3.157785890E-1,-3.482431708E-2,6.427493334E-2,3.241297847E-1
8.459107542E0,2.545015231E-1,-3.748083506E-3,8.564007461E-2,2.685503598E-1
8.469035542E0,3.466904061E-1,3.235607944E-2,3.293268800E-2,3.497509335E-1
8.478963542E0,3.412676252E-1,2.674903817E-2,6.048476815E-2,3.476169016E-1
8.488892542E0,3.263798102E-1,1.143890798E-2,4.760218263E-3,3.266148937E-1
8.498820542E0,3.601170020E-1,-9.391870871E-3,1.047265559E-1,3.751534538E-1
8.508749542E0,2.761793442E-1,3.006630979E-2,5.676301539E-2,2.835507945E-1
8.518677542E0,3.243994313E-1,5.613491479E-2,4.117433846E-2,3.317852406E-1
8.528605542E0,2.304438852E-1,2.040745871E-2,9.904540122E-2,2.516561942E-1
8.538534542E0,2.421564429E-1,-1.967533249E-3,5.272902131E-2,2.478385839E-1
8.548462542E0,2.205998784E-1,-2.950298538E-2,5.224253297E-2,2.286132427E-1
8.558390542E0,2.384727701E-1,4.353610195E-2,6.295463204E-2,2.504554650E-1
8.568319542E0,2.927925995E-1,4.435692312E-2,8.132366002E-2,3.070970215E-1
8.578247542E0,2.160600270E-1,3.133665394E-2,1.200345665E-1,2.491429676E-1
8.588175542E0,2.100381258E-1,-2.097991940E-2,7.867370188E-2,2.252681129E-1
8.598104542E0,4.136152245E-2,9.125493653E-4,7.666342914E-2,8.711423336E-2
8.608032542E0,6.143662177E-2,4.889233422E-2,1.270611656E-1,1.493635117E-1
8.617960542E0,1.105409541E-1,-9.127350144E-2,1.031998479E-1,1.766362455E-1
8.627889542E0,1.018408819E-1,-5.125959774E-2,8.724513531E-2,1.435647075E-1
8.637817542E0,4.702206574E-2,3.662873128E-2,3.385099322E-1,3.437174898E-1
8.647746542E0,9.466569051E-2,1.562461172E-1,2.372273862E-1,2.994182274E-1
8.657674542E0,2.744448408E-1,1.848816316E-1,3.480847478E-2,3.327353577E-1
8.667602542E0,8.768996224E-2,7.255835485E-2,7.393102527E-2,1.357204510E-1
8.677531542E0,6.621094644E-2,1.944000034E-2,3.446319669E-1,3.514726101E-1
8.687459542E0,1.156253274E-1,2.665246775E-2,3.452313066E-2,1.235775745E-1
8.697387542E0,1.593790919E-1,1.445193253E-1,-4.639005482E-2,2.200899078E-1
8.707316542E0,1.499643438E-1,1.293576230E-1,2.690958810E-1,3.341186798E-1
8.717244542E0,1.225869492E-1,3.174044073E-2,2.588036120E-1,2.881220666E-1
8.727172542E0,2.771865271E-1,-3.661636077E-4,-3.585804999E-2,2.794965199E-1
8.737101542E0,1.712539098E-1,-6.157107119E-2,-7.020459473E-2,1.950578980E-1
8.747029542E0,1.620380402E-1,-4.566547517E-2,1.663831061E-1,2.366960077E-1
8.756957542E0,1.148986647E-1,-3.364676094E-2,1.772074717E-1,2.138604585E-1
8.766886542E0,9.810904272E-2,-3.032015204E-2,-4.398626447E-2,1.117116258E-1
8.776814542E0,6.576071084E-3,-9.335644411E-2,1.126951414E-1,1.464884476E-1
8.786742542E0,-1.200143936E-1,-4.320697680E-2,8.397595704E-2,1.527162692E-1
8.796671542E0,6.283498339E-2,9.647520276E-2,1.104082954E-1,1.595170573E-1
8.806599542E0,6.289879113E-2,4.372478429E-2,8.804444969E-2,1.167044978E-1
8.816527542E0,8.104504019E-2,-6.043234421E-2,2.020446897E-1,2.259257032E-1
8.826456542E0,1.151900022E-1,-1.338228127E-1,3.064391237E-1,3.536696458E-1
8.836384542E0,2.071101326E-1,-2.808293425E-2,9.363087952E-2,2.290196494E-1
8.846313542E0,1.685916726E-1,2.789478181E-2,4.072936535E-2,1.756705784E-1
8.856241542E0,-2.718005106E-3,-9.734956250E-3,1.057270145E-1,1.062090322E-1
8.866169542E0,4.948337808E-2,-7.943813397E-2,3.601709425E-2,1.002808701E-1
8.876098542E0,-6.564011201E-3,-6.383745197E-2,6.402701139E-3,6.449264376E-2
8.886026542E0,-6.948904172E-3,3.653486520E-3,8.849643946E-2,8.884399265E-2
8.895954542E0,-6.899122439E-2,1.625703195E-2,1.339328134E-1,1.515324343E-1
8.905883542E0,-6.769979373E-3,6.803460164E-2,1.742435181E-1,1.871773043E-1
8.915811542E0,7.700249456E-2,3.522189120E-2,2.229619342E-1,2.384994547E-1
8.925739542E0,2.107219577E-2,2.705387911E-2,7.557935536E-2,8.299511290E-2
8.935668542E0,8.879296638E-2,4.596468816E-2,-1.807842135E-2,1.016059681E-1
8.945596542E0,6.081718236E-2,3.878589705E-2,2.685743093E-2,7.697010508E-2
8.955524542E0,1.287831706E-1,4.200546535E-2,1.240293843E-1,1.836650547E-1
8.965453542E0,1.115808083E-1,3.321198391E-2,7.467128277E-2,1.383080371E-1
8.975381542E0,1.267325521E-1,9.506810686E-2,8.058632612E-3,1.586317315E-1
8.985309542E0,1.281880702E-1,7.391196700E-2,7.842168689E-2,1.674667764E-1
8.995238542E0,6.012954980E-2,7.273505040E-2,1.412915343E-1,1.699095288E-1
9.005166542E0,8.991870157E-2,6.181508280E-2,1.335270166E-2,1.099307600E-1
9.015094542E0,1.523894034E-2,7.046870615E-2,-1.542782003E-1,1.702933555E-1
9.025023542E0,4.239552945E-2,8.983415449E-2,-3.900268257E-2,1.067181591E-1
9.034951542E0,1.363855742E-2,8.599574978E-2,1.430474532E-1,1.674629902E-1
9.044879542E0,-3.396428302E-3,1.468263076E-1,-1.532087445E-2,1.476625529E-1
9.054808542E0,5.845498033E-2,1.207650299E-1,-2.306609631E-2,1.361367767E-1
9.064736542E0,8.571762331E-2,1.155162768E-1,1.570024180E-1,2.129349206E-1
9.074665542E0,1.640040202E-1,5.301924421E-2,1.121238685E-1,2.056213043E-1
9.084593542E0,6.085021913E-2,-2.692460082E-2,-8.082606196E-3,6.702993227E-2
9.094521542E0,1.145608418E-1,-4.526380800E-2,2.995294690E-2,1.267682050E-1
9.104450542E0,4.191656940E-2,-2.940087838E-2,2.736549550E-1,2.784033851E-1
9.114378542E0,-3.372878641E-2,6.346379662E-2,3.520906752E-1,3.593509818E-1
9.124306542E0,-4.784747332E-2,6.533625780E-2,2.076521695E-1,2.228847926E-1
9.134235542E0,-6.605204836E-2,2.476038186E-2,1.136423904E-1,1.337555326E-1
9.144163542E0,4.681039654E-2,5.011337902E-3,2.064686930E-1,2.117679105E-1
9.154091542E0,9.095497437E-2,4.442604817E-4,7.701601624E-2,1.191825133E-1
9.164020542E0,2.144927540E-1,8.251661992E-2,-3.043183386E-2,2.318237058E-1
9.173948542E0,2.253912330E-1,7.069481067E-2,-3.748240650E-2,2.391733576E-1
9.183876542E0,1.863419189E-1,9.299916096E-2,1.255438131E-1,2.431736081E-1
9.193805542E0,1.610888178E-1,9.477302346E-2,2.343862242E-1,2.997806452E-1
9.203733542E0,2.047183290E-2,6.698312609E-2,9.451848686E-2,1.176417421E-1
9.213661542E0,2.400128536E-2,6.221355228E-2,7.405966401E-2,9.965651820E-2
9.223590542E0,-1.739524730E-2,7.686462818E-2,5.819499850E-2,9.796644091E-2
9.233518542E0,7.588479929E-2,5.857517716E-2,2.151892304E-2,9.824773886E-2
9.243446542E0,2.669853285E-2,-2.453394843E-2,5.838737190E-2,6.872998966E-2
9.253375542E0,5.388976671E-2,-5.310989432E-3,7.143601835E-2,8.964049465E-2
9.263303542E0,2.066582159E-1,7.513147691E-2,2.726281840E-1,3.502548839E-1
9.273231542E0,1.637620917E-1,1.643169376E-1,2.058752006E-1,3.101655637E-1
9.283160542E0,9.068030141E-2,1.299961024E-1,1.671280414E-1,2.303338575E-1
9.293088542E0,2.186127752E-2,1.022121984E-1,8.119969904E-2,1.323579997E-1
9.303016542E0,1.401266228E-1,1.220110716E-1,-9.662816226E-2,2.094258192E-1
9.312945542E0,1.378196769E-1,7.694785964E-2,-2.565758228E-2,1.599173161E-1
9.322873542E0,1.482339334E-1,1.458671633E-1,2.807306707E-2,2.098538192E-1
9.332801542E0,2.301797372E-1,1.575747691E-1,4.080771804E-2,2.819180539E-1
9.342730542E0,1.688972627E-1,1.986046082E-1,8.269950986E-2,2.735128602E-1
9.352658542E0,1.387541351E-1,1.838282923E-1,2.224105418E-2,2.313875873E-1
9.362584292E0,1.990077920E-2,1.753176516E-1,-5.081698179E-2,1.836155920E-1
9.372512292E0,3.479495309E-2,2.295557114E-1,-9.421852469E-2,2.505666454E-1
9.382440292E0,3.387145847E-3,1.485751550E-1,6.922986388E-2,1.639476243E-1
9.392369292E0,6.673843838E-2,1.325542958E-1,8.960974932E-2,1.733625325E-1
9.402297292E0,1.208319806E-1,1.507438873E-1,2.840928197E-2,1.952720522E-1
9.412225292E0,1.167348365E-1,2.308365257E-1,7.583604813E-2,2.695619221E-1
9.422154292E0,1.877007388E-1,2.943248989E-1,1.205929756E-1,3.693255735E-1
9.432082292E0,-1.876546919E-2,3.385109554E-1,-1.873512214E-1,3.873529269E-1
9.442010292E0,-2.244753398E-2,4.087418261E-1,-2.817989570E-1,4.969752754E-1
9.451939292E0,-3.241199344E-2,4.255524614E-1,-2.798781466E-1,5.103696814E-1
9.461867292E0,-3.744980827E-2,4.198862537E-1,-3.580834866E-2,4.230711429E-1
9.471795292E0,5.103223242E-2,3.886344940E-1,2.078568220E-1,4.436727590E-1
9.481724292E0,1.421845503E-2,3.368686187E-1,-1.966886401E-2,3.377417578E-1
9.491652292E0,9.547640696E-2,2.641448608E-1,6.665241122E-2,2.886707392E-1
9.501580292E0,7.516193725E-2,2.560966801E-1,1.911378783E-1,3.282811522E-1
9.511509292E0,4.539200820E-2,5.476000599E-2,-1.244474602E-1,1.433396770E-1
9.521437292E0,-6.255124725E-2,3.774434349E-2,-2.425910372E-1,2.533529264E-1
9.531365292E0,-5.749567151E-2,6.865609671E-2,-8.007820308E-2,1.201329699E-1
9.541294292E0,-4.704121538E-2,6.084786197E-2,6.416617513E-2,1.001630485E-1
9.551222292E0,-1.660743731E-1,1.545146836E-1,3.335836530E-3,2.268625413E-1
9.561150292E0,-1.079178932E-1,1.359658812E-1,5.573039711E-2,1.823153029E-1
9.571079292E0,-9.083028249E-2,1.848748160E-1,5.209635258E-2,2.124685100E-1
9.581007292E0,1.588418059E-2,2.941530456E-1,-3.023185909E-2,2.961288347E-1
9.590935292E0,2.322462894E-2,2.344867232E-1,-2.801634908E-2,2.372937474E-1
9.600864292E0,1.106665961E-2,1.937639359E-1,-5.753835618E-2,2.024292377E-1
9.610792292E0,1.220335834E-2,1.307852572E-1,7.175410688E-2,1.496741705E-1
9.620720292E0,-1.099253885E-1,1.835813205E-1,9.069382310E-2,2.324028008E-1
9.630649292E0,-1.609520660E-1,1.347190903E-1,-9.627148211E-2,2.309177324E-1
9.640577292E0,-2.573676820E-1,1.952225604E-1,-2.187963778E-1,3.901561569E-1
9.650505292E0,-2.096899241E-2,2.615617071E-1,9.763212919E-2,2.799754595E-1
9.660434292E0,-1.820055507E-2,2.070617469E-1,-1.950479114E-1,2.850430055E-1
9.670362292E0,-7.476447277E-2,2.373156244E-1,9.635626674E-2,2.668200931E-1
9.680290292E0,-1.517418243E-2,2.217358462E-1,9.366011560E-2,2.411830395E-1
9.690219292E0,-1.057484300E-1,1.080177526E-1,-1.245030087E-1,1.958355548E-1
9.700147292E0,-1.080395883E-1,3.122057940E-1,2.312760901E-1,4.032786138E-1
9.710075292E0,-2.974827243E-1,2.846371955E-1,1.955577886E-1,4.558038536E-1
9.720004292E0,-3.033305977E-1,2.807696278E-1,-7.407895982E-2,4.199151434E-1
9.729932292E0,-2.798785121E-1,3.384259515E-1,-8.036997914E-2,4.464565374E-1
9.739860292E0,-1.666460846E-1,2.666247380E-1,1.173290598E-1,3.355976411E-1
9.749789292E0,-1.444423795E-1,2.535803856E-1,1.836171895E-1,3.447925250E-1
9.759717292E0,-1.769833772E-1,3.026413572E-1,8.237265050E-2,3.601390848E-1
9.769645292E0,-1.258803204E-1,2.568455257E-1,2.247377336E-2,2.869155792E-1
9.779574292E0,-1.787333027E-1,2.966290856E-1,1.927066863E-2,3.468512168E-1
9.789502292E0,-2.648820119E-1,3.436798941E-1,4.345650673E-2,4.360812055E-1
9.799430292E0,-3.269811232E-1,3.071208360E-1,9.218486309E-2,4.579715186E-1
9.809359292E0,-3.347876678E-1,2.729719637E-1,-7.377431989E-2,4.382226897E-1
9.819287292E0,-2.683882948E-1,2.601975517E-1,7.651841819E-2,3.815627222E-1
9.829215292E0,-3.588703025E-1,2.368808108E-1,3.918745458E-2,4.317824327E-1
9.839144292E0,-2.662562538E-1,2.123167492E-1,-1.815443516E-2,3.410284126E-1
9.849072292E0,-2.828024854E-1,1.873906901E-1,1.024256766E-1,3.543776738E-1
9.859000292E0,-1.946973708E-1,2.527549232E-1,4.493000507E-3,3.190804044E-1
9.868929292E0,-3.286348620E-1,2.755756009E-1,-9.811160088E-2,4.399643969E-1
9.878857292E0,-4.686381816E-1,3.904162868E-1,1.847293299E-1,6.373158931E-1
9.888785292E0,-4.736523152E-1,3.758654906E-1,1.057901645E-1,6.138509116E-1
9.898714292E0,-4.123064715E-1,3.361672452E-1,-6.942866921E-2,5.364936004E-1
9.908642292E0,-3.726495586E-1,2.671598679E-1,8.290942490E-2,4.659571453E-1
9.918570292E0,-6.069888588E-1,2.454702792E-1,1.295725447E-1,6.674430141E-1
9.928499292E0,-5.126734896E-1,3.156017107E-1,8.161368191E-2,6.075354638E-1
9.938427292E0,-2.245990815E-1,3.546043202E-1,4.077263474E-2,4.217242927E-1
9.948355292E0,-2.050222380E-1,4.387584711E-1,3.557796836E-2,4.856015917E-1
9.958284292E0,-3.341683014E-1,4.397708068E-1,3.974802715E-1,6.804831978E-1
9.968212292E0,-4.989709783E-1,4.243045925E-1,8.933960795E-2,6.610506712E-1
9.978140292E0,-3.364283234E-1,3.385077395E-1,-2.151570708E-1,5.235112908E-1
9.988069292E0,-4.940295694E-1,2.424403069E-1,-2.211650848E-2,5.507555336E-1
9.997997292E0,-6.053293459E-1,2.964591143E-1,2.732842416E-1,7.273210434E-1
1.000792529E1,-5.292252760E-1,3.507756364E-1,1.684068274E-1,6.568742646E-1
1.001785429E1,-3.939725999E-1,3.417497282E-1,-3.564053357E-2,5.227595373E-1
1.002778229E1,-4.171814413E-1,2.584434052E-1,1.896526855E-1,5.261192734E-1
1.003771029E1,-5.383159422E-1,1.335218181E-1,4.183203328E-1,6.946970781E-1
1.004763929E1,-4.442194051E-1,1.848695718E-1,-4.903475046E-3,4.811773919E-1
1.005756729E1,-4.480580290E-1,2.314114166E-1,-2.820153040E-1,5.777887787E-1
1.006749529E1,-5.026755548E-1,2.250748256E-1,2.704921961E-2,5.514281919E-1
1.007742429E1,-5.740621642E-1,1.221251014E-1,2.266801786E-1,6.291627867E-1
1.008735229E1,-5.604045302E-1,2.040910141E-1,1.241539299E-2,5.965404609E-1
1.009728029E1,-5.368511416E-1,2.864472011E-1,8.124238372E-2,6.138904399E-1
1.010720929E1,-6.124606832E-1,3.196475819E-1,3.453850883E-1,7.723817219E-1
1.011713729E1,-5.895004946E-1,2.146968949E-1,2.136502433E-1,6.627609043E-1
1.012706529E1,-6.644884041E-1,2.256954527E-1,-4.041244626E-2,7.029341665E-1
1.013699429E1,-5.913576434E-1,2.471405729E-1,-1.000119460E-1,6.486792077E-1
1.014692229E1,-5.882115490E-1,2.033249010E-1,8.436830521E-2,6.280540205E-1
1.015685029E1,-5.534161574E-1,2.220559264E-1,9.933249950E-3,5.963865753E-1
1.016677929E1,-4.918594484E-1,1.631728568E-1,-1.057468951E-2,5.183270418E-1
1.017670729E1,-5.856138504E-1,2.406828349E-1,1.670403332E-1,6.548085840E-1
1.018663529E1,-5.971151043E-1,3.160248298E-1,2.544258016E-1,7.219076321E-1
1.019656429E1,-6.893020139E-1,2.616597941E-1,7.862692416E-2,7.414750889E-1
1.020649229E1,-6.386834720E-1,2.985638196E-1,-7.459293008E-3,7.050621056E-1
1.021642029E1,-6.883348113E-1,2.869838293E-1,-1.152486205E-2,7.458534395E-1
1.022634929E1,-7.063827541E-1,2.563264391E-1,4.578194439E-2,7.528451534E-1
1.023627729E1,-6.163620186E-1,2.035516450E-1,-8.371049345E-2,6.544790729E-1
1.024620529E1,-6.332652958E-1,1.900299406E-1,-1.980978191E-2,6.614595533E-1
1.025613429E1,-6.253790098E-1,2.597806817E-1,5.533980310E-2,6.794463940E-1
1.026606229E1,-7.571650911E-1,2.579377307E-1,-4.095565259E-2,8.009420788E-1
1.027599029E1,-7.096773677E-1,3.359647488E-1,-1.298783541E-2,7.852916417E-1
1.028591929E1,-7.500757076E-1,3.045544200E-1,3.684038222E-2,8.103852020E-1
1.029584729E1,-7.534401955E-1,2.762992852E-1,1.779132307E-2,8.027016596E-1
1.030577529E1,-6.888203495E-1,2.559151788E-1,5.610111058E-2,7.369622699E-1
1.031570429E1,-7.723185159E-1,2.387712887E-1,-4.468149841E-2,8.096196975E-1
1.032563229E1,-7.072118893E-1,2.904742150E-1,8.302753866E-2,7.690367339E-1
1.033556029E1,-7.699014232E-1,3.078719109E-1,2.122539282E-4,8.291763141E-1
1.034548929E1,-7.667155677E-1,3.584602665E-1,1.052732706E-2,8.464380362E-1
1.035541729E1,-8.566896717E-1,3.244441625E-1,5.511527002E-2,9.177248504E-1
1.036534525E1,-8.276598539E-1,3.571219850E-1,-2.168615341E-2,9.016802289E-1
1.037527425E1,-6.775722800E-1,2.595434127E-1,-3.726255119E-2,7.265366305E-1
1.038520225E1,-6.641704617E-1,2.760531174E-1,-6.782302380E-2,7.224456301E-1
1.039513025E1,-6.106818140E-1,2.323598898E-1,-3.250116348E-2,6.542015913E-1
1.040505925E1,-6.458656801E-1,2.227170455E-1,1.911337852E-2,6.834549585E-1
1.041498725E1,-6.308218905E-1,2.500082668E-1,-5.080411792E-2,6.804567947E-1
1.042491525E1,-7.204900389E-1,2.826079375E-1,7.130621016E-2,7.772115016E-1
1.043484425E1,-7.963686255E-1,2.805729420E-1,2.291933119E-2,8.446593747E-1
1.044477225E1,-7.512455893E-1,2.155206031E-1,-1.326230371E-1,7.927218527E-1
1.045470025E1,-8.137822916E-1,1.685128996E-1,-1.836680603E-1,8.511005650E-1
1.046462925E1,-7.537878855E-1,1.136494253E-1,-5.490243137E-2,7.642817839E-1
1.047455725E1,-7.673631468E-1,1.169932287E-1,-3.049381435E-2,7.768291237E-1
1.048448525E1,-7.013912784E-1,1.149314091E-1,1.997642756E-2,7.110260276E-1
1.049441425E1,-7.362979133E-1,9.344212409E-2,1.100562930E-2,7.422851013E-1
1.050434225E1,-7.787981080E-1,1.274691002E-1,3.375188291E-2,7.898823039E-1
1.051427025E1,-8.469586623E-1,7.779170422E-2,-6.776922941E-4,8.505239468E-1
1.052419925E1,-8.756868368E-1,9.679325474E-2,-9.832677841E-3,8.810749411E-1
1.053412725E1,-7.583251056E-1,1.145462603E-1,1.937942684E-2,7.671723234E-1
1.054405525E1,-8.761768334E-1,1.646140858E-1,1.648938203E-1,9.066276042E-1
1.055398425E1,-8.789134765E-1,2.583687436E-1,3.725220162E-1,9.889468941E-1
1.056391225E1,-7.163415125E-1,2.496760170E-1,3.962026548E-1,8.558386645E-1
1.057384025E1,-6.312763654E-1,3.363642598E-1,2.035392380E-1,7.436928036E-1
1.058376925E1,-6.659246995E-1,2.532172918E-1,2.527722090E-1,7.559553505E-1
1.059369725E1,-7.627466970E-1,1.399252045E-1,2.572137541E-1,8.170192788E-1
1.060362525E1,-6.534270801E-1,1.255312599E-1,5.871130764E-2,6.679611245E-1
1.061355425E1,-6.988981719E-1,1.117847117E-1,-1.040430164E-1,7.153876052E-1
1.062348225E1,-7.370105428E-1,1.448563259E-1,1.715403503E-1,7.704505092E-1
1.063341025E1,-7.158624063E-1,1.276666448E-1,2.777789962E-1,7.784079442E-1
1.064333925E1,-5.995055922E-1,7.341394868E-2,2.912427950E-1,6.705362992E-1
1.065326725E1,-5.618791980E-1,-6.003972195E-2,2.939751989E-1,6.369728557E-1
1.066319525E1,-6.849864033E-1,-4.522050206E-2,1.543337488E-1,7.036122316E-1
1.067312425E1,-6.402288180E-1,6.687394761E-2,1.019701785E-1,6.517384303E-1
1.068305225E1,-6.481517952E-1,1.204630212E-1,1.291591465E-2,6.593776687E-1
1.069298025E1,-6.235853764E-1,1.658287170E-1,1.773109674E-2,6.455015700E-1
1.070290925E1,-6.599521342E-1,1.546452958E-1,2.234542698E-1,7.137112845E-1
1.071283725E1,-6.680200493E-1,1.748293726E-1,1.569983250E-1,7.081416312E-1
1.072276525E1,-5.755588321E-1,1.772695253E-1,2.393522644E-1,6.480601518E-1
1.073269325E1,-6.349698322E-1,1.390176983E-1,2.622604859E-1,7.009230848E-1
1.074262225E1,-6.621558036E-1,1.763865957E-1,1.886528116E-1,7.107407563E-1
1.075255025E1,-7.138590040E-1,2.753433385E-1,-1.344801128E-2,7.652381856E-1
1.076247825E1,-5.886012659E-1,3.543153946E-1,-1.624011523E-1,7.059497031E-1
1.077240725E1,-5.627774765E-1,2.849099315E-1,1.872219980E-2,6.310647177E-1
1.078233525E1,-6.146950505E-1,3.176141396E-1,3.228949428E-2,6.926552954E-1
1.079226325E1,-5.503129669E-1,3.192075789E-1,9.827239931E-2,6.437354305E-1
1.080219225E1,-5.357712340E-1,3.066484906E-1,9.686555922E-2,6.248736260E-1
1.081212025E1,-4.936509622E-1,2.250539949E-1,1.791639501E-1,5.713495376E-1
1.082204825E1,-5.629564013E-1,1.826116512E-1,7.984314501E-2,5.971949872E-1
1.083197725E1,-4.431586470E-1,2.840149055E-1,-1.369698572E-1,5.438885868E-1
1.084190525E1,-3.907287839E-1,3.076023908E-1,-1.614305145E-1,5.228269545E-1
1.085183325E1,-3.698498386E-1,3.069545558E-1,-6.747862279E-2,4.853487066E-1
1.086176225E1,-3.457409645E-1,2.043547418E-1,-8.324973285E-2,4.101563032E-1
1.087169025E1,-3.887154414E-1,1.946314435E-1,-1.098206502E-1,4.483767036E-1
1.088161825E1,-3.272336499E-1,2.548999377E-1,1.675636590E-2,4.151344549E-1
1.089154725E1,-4.256789806E-1,2.686731273E-1,8.257145584E-2,5.101038023E-1
1.090147525E1,-4.205147928E-1,2.015267725E-1,-2.937056422E-3,4.663200160E-1
1.091140325E1,-4.112850360E-1,1.693224649E-1,-7.335332036E-3,4.448362452E-1
1.092133225E1,-4.358995481E-1,2.740782569E-1,9.496872246E-2,5.235898826E-1
1.093126025E1,-4.501268470E-1,3.460982659E-1,2.112505460E-1,6.058258671E-1
1.094118825E1,-5.166003335E-1,2.839747059E-1,1.394578475E-1,6.057772110E-1
1.095111725E1,-4.531797514E-1,2.393565767E-1,2.305779326E-1,5.619872249E-1
1.096104525E1,-5.088501415E-1,1.839816172E-1,1.724168479E-1,5.678954758E-1
1.097097325E1,-4.708753994E-1,1.779024864E-1,1.137967569E-1,5.160645680E-1
1.098090225E1,-4.377812552E-1,1.336462998E-1,4.965046227E-2,4.604116954E-1
1.099083025E1,-3.218550155E-1,1.702910561E-1,1.368160754E-1,3.889837185E-1
1.100075825E1,-1.965525462E-1,2.813887017E-1,1.335977679E-1,3.683216915E-1
1.101068725E1,-2.490199777E-1,3.134378754E-1,8.932791352E-2,4.101630495E-1
1.102061525E1,-1.988726483E-1,2.945648540E-1,2.636158705E-2,3.563898381E-1
1.103054325E1,-2.494249704E-1,2.211123137E-1,1.043804008E-1,3.492831791E-1
1.104047125E1,-2.411249209E-1,1.923727372E-1,-9.375250161E-2,3.223942137E-1
1.105040025E1,-2.397822540E-1,1.258650811E-1,-8.008814335E-2,2.824033617E-1
1.106032825E1,-2.448694778E-1,2.528166844E-1,-1.158292490E-1,3.705317153E-1
1.107025625E1,-2.357102530E-1,3.373706387E-1,1.165823704E-1,4.277496001E-1
1.108018525E1,-3.555485724E-1,3.010481736E-1,7.560566783E-2,4.719756426E-1
1.109011325E1,-2.907387650E-1,2.226040115E-1,7.452861071E-3,3.662473489E-1
1.110004125E1,-2.471297190E-1,2.376856252E-1,-4.906574070E-2,3.463740772E-1
1.110997025E1,-1.757225713E-1,2.866421326E-1,2.736029148E-2,3.373288007E-1
1.111989825E1,-1.998242826E-1,2.674412651E-1,1.584004873E-1,3.695203494E-1
1.112982625E1,-2.597483759E-1,3.252085764E-1,-7.264522254E-2,4.225010831E-1
1.113975525E1,-1.619570562E-1,3.777123337E-1,-2.228601927E-1,4.675076048E-1
1.114968325E1,-1.974212962E-1,3.574334224E-1,-8.584706604E-2,4.172571610E-1
1.115961125E1,-1.553390314E-1,3.499364514E-1,4.623334944E-2,3.856465445E-1
1.116954025E1,-1.856838148E-1,3.860969486E-1,-1.360348874E-1,4.495050872E-1
1.117946825E1,-1.092711581E-1,4.204553339E-1,-2.902949613E-1,5.224883141E-1
1.118939625E1,-7.549376674E-2,3.814256811E-1,1.978054583E-2,3.893277912E-1
1.119932525E1,-1.106432073E-1,2.903768954E-1,8.091786325E-2,3.211049070E-1
1.120925325E1,-4.648514517E-2,3.213263906E-1,-8.905543327E-2,3.366636129E-1
1.121918125E1,-1.334577271E-1,3.972741937E-1,-2.152114499E-1,4.711196430E-1
1.122911025E1,-7.963644594E-2,3.800840740E-1,-7.155003905E-2,3.948737455E-1
1.123903825E1,-1.489517523E-1,3.576090581E-1,-1.338684940E-1,4.098678282E-1
1.124896625E1,-6.775000669E-2,3.459974380E-1,-2.739169103E-1,4.464692198E-1
1.125889525E1,1.684940971E-2,3.078117211E-1,-1.390783632E-1,3.381933609E-1
1.126882325E1,1.767247841E-3,3.383801971E-1,-8.075823426E-2,3.478881621E-1
1.127875125E1,2.037520766E-2,3.596514540E-1,-1.207800865E-2,3.604305699E-1
1.128867925E1,1.168661065E-2,3.920984942E-1,-1.067385828E-1,4.065352765E-1
1.129860825E1,6.735510036E-2,3.424451083E-1,-1.501623452E-1,3.799395895E-1
1.130853625E1,-5.029694505E-2,2.881678905E-1,2.941441834E-2,2.939995302E-1
1.131846425E1,7.119277418E-3,3.722181802E-1,-3.994525373E-2,3.744231311E-1
1.132839325E1,3.351287797E-2,3.993751713E-1,-2.068394065E-1,4.510057434E-1
1.133832125E1,-7.933377944E-2,4.385878055E-1,-1.586875856E-1,4.731118911E-1
1.134824925E1,-5.755962543E-2,4.175957897E-1,6.093208015E-2,4.259249610E-1
1.135817825E1,-1.004485137E-1,5.266056503E-1,-3.490203023E-2,5.372351129E-1
1.136810575E1,3.075547725E-2,4.259526303E-1,-5.392828524E-2,4.304530202E-1
1.137803375E1,4.634371564E-2,2.753305295E-1,8.410751939E-2,2.915968369E-1
1.138796275E1,8.275768965E-2,4.203643732E-1,1.143142354E-1,4.434216795E-1
1.139789075E1,3.893434323E-2,5.046749371E-1,-1.532847583E-2,5.064065930E-1
1.140781875E1,4.058384277E-2,5.277601100E-1,-1.735430217E-1,5.570412573E-1
1.141774775E1,8.363045968E-2,5.072271737E-1,-1.129366314E-1,5.263346295E-1
1.142767575E1,-5.384445079E-2,4.734284399E-1,1.060088503E-1,4.881307089E-1
1.143760375E1,-8.081897222E-2,4.471827374E-1,1.730851847E-1,4.862741902E-1
1.144753175E1,-7.138529375E-2,4.378383386E-1,8.178208172E-2,4.510948679E-1
1.145746075E1,1.480558857E-2,3.820024724E-1,1.103813982E-1,3.979059530E-1
1.146738875E1,2.952215329E-2,2.645766046E-1,1.416634172E-1,3.015640247E-1
1.147731675E1,-2.157162108E-2,3.892116873E-1,3.702047646E-2,3.915630064E-1
1.148724575E1,-2.137537390E-2,4.663164715E-1,8.329475641E-2,4.741792643E-1
1.149717375E1,-5.096630506E-2,5.363126496E-1,3.016403139E-2,5.395726931E-1
1.150710175E1,3.718471013E-2,6.169335839E-1,2.098173934E-1,6.526967812E-1
1.151703075E1,-9.085601024E-2,4.600991637E-1,1.816612959E-1,5.029382481E-1
1.152695875E1,-1.366421208E-3,2.963415488E-1,9.531136930E-2,3.112947763E-1
1.153688675E1,1.935472235E-2,3.364473268E-1,1.250853914E-1,3.594687249E-1
1.154681575E1,-4.620118976E-2,4.075921904E-1,-2.140665650E-3,4.102079059E-1
1.155674375E1,2.491272010E-2,3.526248184E-1,-6.089875102E-2,3.587109756E-1
1.156667175E1,2.988489993E-2,5.446654702E-1,6.404396832E-2,5.492314736E-1
1.157660075E1,-1.788071238E-2,6.517735606E-1,4.058037829E-1,7.679877632E-1
1.158652875E1,-1.784325365E-1,5.363878229E-1,2.840056962E-1,6.326209782E-1
1.159645675E1,-7.205589630E-2,4.717459767E-1,-4.096442342E-2,4.789722359E-1
1.160638575E1,-3.311482877E-2,4.542162435E-1,-5.126721740E-2,4.582982820E-1
1.161631375E1,-1.239952511E-1,4.702578969E-1,7.644123495E-2,4.923013044E-1
1.162624175E1,-3.437022597E-2,5.021188268E-1,-7.679148316E-3,5.033523597E-1
1.163616975E1,-5.013234593E-2,5.151582639E-1,-2.100536209E-1,5.585909171E-1
1.164609875E1,-9.950572327E-3,6.133887825E-1,1.753696918E-2,6.137200972E-1
1.165602675E1,-1.494872110E-1,6.828731465E-1,3.323171461E-1,7.740134663E-1
1.166595475E1,-1.670550243E-1,7.609275551E-1,3.068577844E-1,8.373050968E-1
1.167588375E1,-1.296155948E-1,6.368252268E-1,1.033173770E-1,6.580433514E-1
1.168581175E1,-2.818482198E-2,4.645292701E-1,-8.977873385E-2,4.739641843E-1
1.169573975E1,4.584947973E-4,4.351607158E-1,3.299876153E-2,4.364103311E-1
1.170566875E1,-1.702427070E-1,5.035013644E-1,-2.537691593E-2,5.321091910E-1
1.171559675E1,-5.701488420E-2,5.151097320E-1,-3.028389931E-2,5.191395261E-1
1.172552475E1,-3.118334725E-2,4.882898694E-1,9.200769246E-2,4.978602346E-1
1.173545375E1,-7.115432873E-2,5.230973575E-1,2.743104279E-1,5.949285627E-1
1.174538175E1,-1.510753148E-1,5.572213426E-1,3.079915595E-1,6.543532502E-1
1.175530975E1,-1.322678918E-1,6.661550798E-1,1.933060259E-1,7.061335605E-1
1.176523875E1,7.173027948E-2,6.135155940E-1,6.038945854E-2,6.206395925E-1
1.177516675E1,-6.336357169E-2,3.629414630E-1,-9.107915461E-2,3.795218836E-1
1.178509475E1,-8.350664489E-2,4.155405299E-1,-1.229213369E-1,4.413127539E-1
1.179502275E1,-8.488227546E-2,5.577124722E-1,5.864815772E-2,5.671752892E-1
1.180495175E1,-3.117391862E-2,6.018256943E-1,1.865027905E-1,6.308322046E-1
1.181487975E1,-8.082174964E-2,4.579148997E-1,3.173628920E-1,5.629719494E-1
1.182480775E1,-1.292518980E-1,4.487207013E-1,3.534934223E-2,4.683010751E-1
1.183473675E1,-7.323659532E-2,4.699737222E-1,1.661825466E-1,5.038407856E-1
1.184466475E1,-1.282357981E-1,5.343851149E-1,4.419793367E-2,5.513305073E-1
1.185459275E1,-7.649532169E-2,4.704405858E-1,7.925608456E-2,4.831639535E-1
1.186452175E1,-1.313473939E-1,4.285968874E-1,-9.454947710E-4,4.482725998E-1
1.187444975E1,-7.715503380E-2,5.131245292E-1,3.560077250E-2,5.201125808E-1
1.188437775E1,-9.757029489E-3,5.269389782E-1,3.634366125E-1,6.401922037E-1
1.189430675E1,-4.101478256E-2,4.873294643E-1,1.402694410E-1,5.087708081E-1
1.190423475E1,-5.268538646E-2,3.658966092E-1,-5.622916460E-2,3.739221811E-1
1.191416275E1,-1.555162751E-1,3.854619775E-1,-2.300470054E-2,4.162877180E-1
1.192409075E1,-9.391666219E-2,5.241436802E-1,6.338908017E-2,5.362509789E-1
1.193401975E1,-1.340892264E-1,4.985417195E-1,1.256841463E-1,5.313381893E-1
1.194394775E1,-1.402402049E-1,5.324170518E-1,4.337756932E-2,5.522833020E-1
1.195387575E1,-1.871282233E-1,5.053822310E-1,1.612106591E-1,5.625095981E-1
1.196380475E1,-1.908050255E-1,5.406418550E-1,1.567632669E-1,5.943693254E-1
1.197373275E1,-1.654898708E-1,5.026389366E-1,-6.698511779E-2,5.334039782E-1
1.198366075E1,-1.495782083E-1,4.486811230E-1,-1.276084650E-1,4.898696876E-1
1.199358975E1,-1.066988218E-1,4.370040140E-1,-7.023500025E-2,4.552912278E-1
1.200351775E1,-1.248729182E-1,5.114453550E-1,1.083383811E-1,5.375005132E-1
1.201344575E1,-6.265371971E-2,5.953713915E-1,1.706387097E-1,6.225031338E-1
1.202337475E1,-5.081939377E-2,5.539155096E-1,1.130354494E-1,5.676107957E-1
1.203330275E1,-1.030984718E-1,6.264333359E-1,1.462727773E-1,6.514934724E-1
1.204323075E1,-1.058613543E-1,5.982689792E-1,1.143902493E-1,6.182374357E-1
1.205315975E1,-1.878793712E-1,5.249289612E-1,-1.015953720E-1,5.667192357E-1
1.206308775E1,-1.650256750E-1,4.945151807E-1,-1.126179582E-1,5.333493619E-1
1.207301575E1,-2.269894964E-1,5.313895133E-1,1.583361679E-1,5.991405414E-1
1.208294375E1,-1.713651531E-1,6.189639565E-1,1.465300548E-1,6.587514342E-1
1.209287275E1,-1.269078223E-1,5.546426108E-1,7.202483296E-2,5.735168678E-1
1.210280075E1,-1.241770995E-1,5.423507768E-1,7.563081086E-2,5.615018582E-1
1.211272875E1,-5.501133576E-3,5.051920868E-1,1.478468478E-1,5.264104838E-1
1.212265775E1,-6.494063884E-4,5.094323780E-1,-4.210813880E-2,5.111700938E-1
1.213258575E1,1.059992024E-1,5.026072520E-1,-4.162281990E-2,5.153468151E-1
1.214251375E1,1.090834625E-2,4.631731546E-1,-2.333857656E-2,4.638890517E-1
1.215244275E1,-1.830251589E-2,4.932642420E-1,4.058610857E-2,4.952694486E-1
1.216237075E1,-1.425922474E-1,5.042898249E-1,2.969157636E-2,5.249022444E-1
1.217229875E1,-2.657848220E-1,5.640032722E-1,6.609400213E-2,6.269845930E-1
1.218222775E1,-2.184662294E-1,6.046334542E-1,1.727045310E-1,6.656845817E-1
1.219215575E1,-2.478166207E-1,5.751516467E-1,1.021087575E-1,6.345381726E-1
1.220208375E1,-1.801183619E-1,5.111036949E-1,1.506710529E-2,5.421223376E-1
1.221201175E1,-1.483284391E-1,5.069105469E-1,6.527656138E-2,5.321847968E-1
1.222194075E1,-4.180444904E-2,5.797265082E-1,2.030562580E-2,5.815864121E-1
1.223186875E1,-1.861658446E-2,5.040018130E-1,1.557347417E-2,5.045859072E-1
1.224179675E1,-3.061229356E-2,4.870094754E-1,-4.129888415E-2,4.897151616E-1
1.225172575E1,-2.075498432E-2,5.152638792E-1,-2.539855063E-2,5.163068090E-1
1.226165375E1,-2.198591823E-1,5.457172382E-1,-7.059752762E-2,5.925617056E-1
1.227158175E1,-2.150645386E-1,5.234556456E-1,1.394362128E-1,5.828387651E-1
1.228151075E1,-1.946736896E-1,4.402667604E-1,4.516564786E-2,4.835003634E-1
1.229143875E1,-1.657342844E-1,4.202007973E-1,-1.234937793E-1,4.682811940E-1
1.230136675E1,-2.019631941E-1,3.616348295E-1,1.434602666E-1,4.383488677E-1
1.231129575E1,-1.365482730E-1,4.455477463E-1,9.933717728E-2,4.764725594E-1
1.232122375E1,-6.745282196E-2,4.306974996E-1,-1.737535214E-1,4.692978857E-1
1.233115175E1,-1.369007870E-1,4.845641698E-1,-1.403261590E-1,5.227195147E-1
1.234107975E1,-1.080247510E-1,4.893298698E-1,3.426000595E-2,5.022816106E-1
1.235100875E1,-1.347626064E-1,4.859066905E-1,4.130180776E-2,5.059368649E-1
1.236093675E1,-1.342550681E-1,5.458266907E-1,-5.209284425E-3,5.621195035E-1
1.237086550E1,-1.716252080E-1,5.152283939E-1,8.165753603E-2,5.491661526E-1
1.238079450E1,-1.826818543E-1,5.342846890E-1,1.418534517E-2,5.648309595E-1
1.239072250E1,-9.171394296E-2,5.152894973E-1,-7.901634872E-2,5.293187100E-1
1.240065050E1,-1.855574419E-1,4.386495667E-1,-4.170760453E-2,4.781051462E-1
1.241057950E1,-1.988019700E-1,4.461307868E-1,2.615401089E-2,4.891205725E-1
1.242050750E1,-2.695157842E-1,5.167668329E-1,1.202000427E-1,5.950922347E-1
1.243043550E1,-2.610802985E-1,5.166539086E-1,-5.049655437E-3,5.788952259E-1
1.244036350E1,-2.923506962E-1,4.398862528E-1,1.204006022E-1,5.417242379E-1
1.245029250E1,-2.712266064E-1,4.986434976E-1,2.159113616E-1,6.073112265E-1
1.246022050E1,-1.783922638E-1,5.868127854E-1,5.534272671E-2,6.158212909E-1
1.247014850E1,-1.892489353E-1,6.547032349E-1,-4.581761241E-2,6.830451953E-1
1.248007750E1,-1.154651868E-1,5.856188205E-1,6.272249758E-2,6.001797430E-1
1.249000550E1,-6.602325082E-2,4.736777141E-1,2.651887715E-2,4.789915420E-1
1.249993350E1,-6.644593142E-2,4.107124474E-1,-1.044914979E-1,4.289734833E-1
1.250986250E1,-1.677952818E-1,3.230189768E-1,2.236472279E-1,4.272172732E-1
1.251979050E1,-3.291666663E-1,4.071955664E-1,2.188332152E-1,5.674917617E-1
1.252971850E1,-2.798245715E-1,4.212040333E-1,1.822009939E-1,5.375051913E-1
1.253964750E1,-4.227871670E-1,4.055971935E-1,1.353355604E-1,6.013100580E-1
1.254957550E1,-3.930404075E-1,4.799787102E-1,2.665003020E-1,6.751908879E-1
1.255950350E1,-3.783971523E-1,4.984551077E-1,2.075387335E-1,6.593286169E-1
1.256943150E1,-2.666255055E-1,4.396586134E-1,3.947630703E-2,5.157007226E-1
1.257936050E1,-2.801867335E-1,3.712526222E-1,1.155737257E-1,4.792602645E-1
1.258928850E1,-3.006940151E-1,3.697075320E-1,1.461108094E-1,4.984465052E-1
1.259921650E1,-2.274239445E-1,5.653333676E-1,1.369792128E-1,6.245692690E-1
1.260914550E1,-3.304342695E-1,6.614498254E-1,9.535288453E-2,7.455164992E-1
1.261907350E1,-3.485936017E-1,5.046389037E-1,3.673098081E-1,7.149086777E-1
1.262900150E1,-3.846560850E-1,4.382795476E-1,3.162653697E-1,6.633800190E-1
1.263893050E1,-3.590591676E-1,4.677917971E-1,2.219632298E-1,6.300954901E-1
1.264885850E1,-3.743198157E-1,4.838789492E-1,1.653849864E-1,6.337241953E-1
1.265878650E1,-4.079728076E-1,4.909173158E-1,1.347151709E-1,6.523724396E-1
1.266871450E1,-3.550299975E-1,4.580339637E-1,-3.577209592E-2,5.806212654E-1
1.267864350E1,-3.815909746E-1,3.529869438E-1,1.383310890E-1,5.379097922E-1
1.268857150E1,-3.371276504E-1,3.521813436E-1,2.826175672E-1,5.635241261E-1
1.269849950E1,-3.505377278E-1,4.314970332E-1,3.778061450E-1,6.721635750E-1
1.270842850E1,-3.325264764E-1,5.129950865E-1,1.728770238E-1,6.353143172E-1
1.271835650E1,-4.043980392E-1,5.505321279E-1,2.123889989E-1,7.153547964E-1
1.272828450E1,-5.848887956E-1,4.906772145E-1,2.720884860E-1,8.104882333E-1
1.273821350E1,-6.103665029E-1,3.516372968E-1,1.204707688E-1,7.146392534E-1
1.274814150E1,-6.309767687E-1,4.778723969E-1,-1.740716100E-2,7.917049448E-1
1.275806950E1,-5.544449019E-1,5.004474002E-1,2.825702047E-1,7.985628780E-1
1.276799750E1,-5.941976360E-1,3.124535698E-1,4.086174631E-1,7.859174862E-1
1.277792650E1,-4.820724519E-1,3.502841049E-1,3.429146397E-1,6.875196384E-1
1.278785450E1,-3.837578796E-1,3.808904050E-1,2.050577599E-1,5.782700889E-1
1.279778250E1,-4.104818478E-1,4.065216748E-1,1.460616928E-1,5.958936462E-1
1.280771150E1,-4.504301713E-1,4.090290705E-1,1.317067784E-1,6.225261402E-1
1.281763950E1,-5.813447251E-1,4.344369036E-1,1.045634186E-1,7.332329924E-1
1.282756750E1,-6.203781787E-1,4.129909611E-1,1.713099700E-1,7.647076071E-1
1.283749650E1,-7.738624732E-1,4.978335486E-1,2.149875015E-1,9.449449695E-1
1.284742450E1,-7.083265147E-1,6.573808942E-1,2.025381947E-1,9.873691366E-1
1.285735250E1,-6.316877170E-1,5.732712917E-1,1.079243982E-1,8.598354618E-1
1.286728050E1,-6.989299661E-1,5.045133347E-1,2.177842247E-1,8.890819821E-1
1.287720950E1,-6.112633927E-1,5.135669442E-1,2.655056906E-1,8.413603349E-1
1.288713750E1,-5.469734759E-1,4.318542616E-1,-1.514037091E-1,7.131627933E-1
1.289706550E1,-5.587143195E-1,4.259753613E-1,-7.581324399E-2,7.066571638E-1
1.290699450E1,-6.748211651E-1,5.015416335E-1,4.050740504E-1,9.332805587E-1
1.291692250E1,-6.238347602E-1,4.196933321E-1,2.899552381E-1,8.058451099E-1
1.292685050E1,-6.569434494E-1,4.936262212E-1,-5.906331003E-2,8.238507246E-1
1.293677950E1,-6.793556808E-1,6.256800684E-1,3.511773401E-1,9.880917028E-1
1.294670750E1,-6.650070521E-1,4.883884681E-1,3.247800851E-1,8.867016290E-1
1.295663550E1,-7.283188760E-1,4.843945275E-1,-5.011531591E-2,8.761266964E-1
1.296656450E1,-6.865192509E-1,5.764832038E-1,-1.154708147E-2,8.965349414E-1
1.297649250E1,-7.186841995E-1,5.186984972E-1,9.781748593E-2,8.916969048E-1
1.298642050E1,-7.068373020E-1,6.231892276E-1,-2.019289148E-1,9.637214699E-1
1.299634850E1,-7.074862698E-1,5.323591644E-1,1.931861579E-1,9.062361687E-1
1.300627750E1,-7.207985526E-1,4.922291752E-1,5.144438803E-2,8.743492663E-1
1.301620550E1,-5.991690850E-1,4.566208378E-1,1.548073733E-1,7.690718463E-1
1.302613350E1,-7.292320649E-1,3.733443540E-1,2.181455827E-1,8.477929619E-1
1.303606250E1,-7.281295723E-1,3.421629070E-1,-4.117901623E-2,8.055705062E-1
1.304599050E1,-7.860724828E-1,4.229780055E-1,-1.577619714E-1,9.064817598E-1
1.305591850E1,-7.741181427E-1,5.561792226E-1,1.512493426E-1,9.651272404E-1
1.306584750E1,-7.998303965E-1,4.554978801E-1,3.440267801E-2,9.210811724E-1
1.307577550E1,-7.895259945E-1,4.662487900E-1,-6.958829820E-2,9.195551976E-1
1.308570350E1,-7.540858743E-1,4.084251628E-1,9.797302186E-2,8.631658777E-1
1.309563250E1,-8.102693575E-1,3.264553124E-1,1.188738942E-3,8.735621991E-1
1.310556050E1,-7.687840202E-1,4.176170589E-1,-5.471824408E-2,8.765996600E-1
1.311548850E1,-8.241350792E-1,4.677764848E-1,-2.488516510E-2,9.479624148E-1
1.312541650E1,-8.369762957E-1,4.971893317E-1,-1.685027218E-1,9.879877116E-1
1.313534550E1,-8.150989383E-1,5.235319883E-1,-2.409023613E-1,9.982514562E-1
1.314527350E1,-8.052764200E-1,5.850376073E-1,-1.257560670E-2,9.954382253E-1
1.315520150E1,-7.636306498E-1,6.592954919E-1,-1.680366987E-1,1.022760308E0
1.316513050E1,-8.500179986E-1,5.674866778E-1,-1.100504458E-1,1.027950791E0
1.317505850E1,-8.117392013E-1,4.546315785E-1,-1.099791098E-1,9.368595454E-1
1.318498650E1,-8.717425974E-1,3.512987795E-1,-1.190493107E-1,9.473746498E-1
1.319491550E1,-9.004062333E-1,3.959562678E-1,-3.232867062E-2,9.841533894E-1
1.320484350E1,-8.631809581E-1,5.226370720E-1,5.411539614E-2,1.010524295E0
1.321477150E1,-8.253433333E-1,6.314196222E-1,-1.389427078E-1,1.048421401E0
1.322470050E1,-7.395024799E-1,5.701911978E-1,-1.203029537E-1,9.415172439E-1
1.323462850E1,-7.669328649E-1,5.206329388E-1,-1.720244998E-1,9.427815785E-1
1.324455650E1,-7.025917849E-1,4.972438569E-1,-1.865975153E-1,8.807413367E-1
1.325448550E1,-7.981978539E-1,4.629682462E-1,-2.109020519E-1,9.465405889E-1
1.326441350E1,-8.417444808E-1,5.679390331E-1,-1.937451518E-1,1.033743537E0
1.327434150E1,-8.376753303E-1,5.240876931E-1,-1.055773258E-2,9.881696893E-1
1.328427050E1,-9.280628324E-1,4.719748221E-1,-3.519263685E-2,1.041777028E0
1.329419850E1,-9.141666321E-1,4.653157937E-1,3.817647099E-3,1.025784575E0
1.330412650E1,-9.922372667E-1,5.535854343E-1,-1.100071764E-1,1.141531079E0
1.331405550E1,-8.450073733E-1,5.825698630E-1,-2.371233058E-1,1.053400479E0
1.332398350E1,-8.329768733E-1,5.484878317E-1,-2.117159843E-1,1.019565119E0
1.333391150E1,-7.905089846E-1,5.258627250E-1,-1.273470944E-1,9.579422439E-1
1.334384050E1,-7.590147847E-1,5.400223425E-1,-5.839088023E-2,9.333472390E-1
1.335376850E1,-7.757224725E-1,5.177371418E-1,-6.205006778E-2,9.346910256E-1
1.336369650E1,-7.191415979E-1,4.067672944E-1,4.208825827E-2,8.272821110E-1
1.337362513E1,-7.335785195E-1,3.047291786E-1,6.548823059E-2,7.970483203E-1
1.338355313E1,-7.303040057E-1,3.394324401E-1,-1.805620193E-3,8.053332120E-1
1.339348113E1,-7.959829286E-1,4.070330139E-1,-4.019376040E-3,8.940250848E-1
1.340341012E1,-7.941224176E-1,3.898500936E-1,-8.762520432E-2,8.889835128E-1
1.341333812E1,-8.230512978E-1,4.422461890E-1,-4.148774922E-2,9.352627245E-1
1.342326612E1,-8.609440327E-1,4.210751388E-1,6.725116611E-2,9.607557542E-1
1.343319512E1,-7.886850187E-1,3.546647657E-1,-7.223650217E-3,8.647909204E-1
1.344312313E1,-8.637421446E-1,3.740597242E-1,5.270270884E-2,9.427347163E-1
1.345305113E1,-7.588400260E-1,4.319590364E-1,4.530422688E-2,8.743450504E-1
1.346298013E1,-7.445098892E-1,4.608990993E-1,-1.795913815E-2,8.758113299E-1
1.347290813E1,-7.309527542E-1,5.434895586E-1,-1.071087116E-1,9.171396324E-1
1.348283613E1,-7.488145363E-1,4.571274991E-1,-1.665930212E-2,8.774772319E-1
1.349276513E1,-7.738441276E-1,3.928317350E-1,-4.326354861E-3,8.678538029E-1
1.350269312E1,-7.769984812E-1,4.531155417E-1,6.682782769E-2,9.019458367E-1
1.351262112E1,-8.068985108E-1,4.922666339E-1,1.002405721E-1,9.505050330E-1
1.352255012E1,-7.046694468E-1,4.928486511E-1,3.921493649E-2,8.608116132E-1
1.353247813E1,-7.666339260E-1,4.765077664E-1,-6.107416749E-3,9.026763143E-1
1.354240613E1,-7.523056164E-1,4.737511697E-1,4.482358575E-2,8.901758619E-1
1.355233513E1,-6.923101871E-1,3.848950899E-1,-6.600570917E-2,7.948549421E-1
1.356226313E1,-7.453923802E-1,4.739622176E-1,-1.764233601E-1,9.007636683E-1
1.357219113E1,-7.162293921E-1,5.122477392E-1,9.845190883E-2,8.860446190E-1
1.358212013E1,-7.011701075E-1,3.981019401E-1,1.576070201E-1,8.215623209E-1
1.359204812E1,-6.482343871E-1,3.623586783E-1,6.859193265E-2,7.457992261E-1
1.360197612E1,-7.383703858E-1,4.063345639E-1,1.080261397E-1,8.496871491E-1
1.361190512E1,-6.736153961E-1,3.689863876E-1,-2.398410916E-2,7.684294981E-1
1.362183312E1,-6.622750868E-1,2.888039944E-1,-6.446789145E-2,7.253772445E-1
1.363176213E1,-7.844188902E-1,3.569754757E-1,-2.716616392E-2,8.622543047E-1
1.364169013E1,-7.345142933E-1,3.474865045E-1,5.973632455E-2,8.147555132E-1
1.365161813E1,-7.011926193E-1,3.438162438E-1,-1.257057810E-1,7.910010381E-1
1.366154713E1,-6.651011923E-1,3.291916631E-1,9.005823076E-2,7.475541666E-1
1.367147513E1,-7.626002242E-1,2.206572907E-1,1.726127297E-1,8.124308564E-1
1.368140312E1,-6.658161606E-1,2.571542221E-1,1.007299840E-2,7.138213495E-1
1.369133212E1,-5.901158410E-1,4.083513052E-1,7.903681397E-3,7.176698143E-1
1.370126012E1,-6.703571814E-1,5.621727283E-1,-7.185935676E-2,8.778272576E-1
1.371118812E1,-6.776219083E-1,6.662522167E-1,-6.461407185E-2,9.524906535E-1
1.372111713E1,-7.011474495E-1,5.313673304E-1,-3.085575700E-3,8.797547991E-1
1.373104513E1,-6.203921389E-1,3.055670481E-1,-1.624192786E-1,7.103785251E-1
1.374097313E1,-6.871069691E-1,2.139540975E-1,9.658196926E-2,7.260994558E-1
1.375090213E1,-6.847087336E-1,5.592271203E-1,7.025488079E-2,8.868465314E-1
1.376083013E1,-6.814785855E-1,5.752757538E-1,-1.486946940E-2,8.919508712E-1
1.377075913E1,-8.173997446E-1,5.631120834E-1,-3.104725331E-1,1.040014786E0
1.378068712E1,-7.058518269E-1,4.004769695E-1,9.540141642E-2,8.171352611E-1
1.379061512E1,-7.448510742E-1,4.533533406E-1,-7.147402525E-2,8.748947997E-1
1.380054412E1,-6.532550257E-1,4.922103544E-1,5.655017674E-2,8.198847993E-1
1.381047212E1,-6.796691646E-1,3.364186024E-1,2.620078862E-2,7.588241764E-1
1.382040013E1,-5.770491412E-1,2.945345581E-1,-3.467281938E-2,6.487977510E-1
1.383032913E1,-6.219155578E-1,2.642471140E-1,-1.051113027E-1,6.838522386E-1
1.384025713E1,-7.374111501E-1,2.509842584E-1,-1.399612927E-1,7.914274861E-1
1.385018513E1,-6.831767631E-1,4.385811543E-1,-4.682801127E-2,8.131892653E-1
1.386011413E1,-8.226053014E-1,5.698743518E-1,1.040857011E-1,1.006116341E0
1.387004212E1,-8.242215449E-1,4.497443660E-1,2.527166605E-3,9.389449060E-1
1.387997112E1,-7.062932186E-1,4.315131862E-1,-1.438157773E-1,8.400813760E-1
1.388989912E1,-5.896224821E-1,5.245532776E-1,-3.300636292E-2,7.898735548E-1
1.389982712E1,-6.641613986E-1,4.478002765E-1,-2.916942000E-2,8.015524350E-1
1.390975613E1,-7.312912349E-1,4.066901843E-1,-2.886735284E-1,8.851644945E-1
1.391968413E1,-5.995871609E-1,4.457565650E-1,-1.929663026E-1,7.716473758E-1
1.392961313E1,-7.202842169E-1,5.330674084E-1,4.864883423E-4,8.960861854E-1
1.393954113E1,-7.317277296E-1,5.089100754E-1,2.044192439E-1,9.144409015E-1
1.394946913E1,-7.045251667E-1,4.556841870E-1,2.611793357E-1,8.787595998E-1
1.395939813E1,-7.169439950E-1,4.779052510E-1,1.394619405E-2,8.617404581E-1
1.396932612E1,-7.627925976E-1,4.377893316E-1,-3.859162331E-5,8.794953368E-1
1.397925412E1,-7.659693168E-1,4.397173779E-1,-1.076279444E-1,8.897438627E-1
1.398918312E1,-6.766634034E-1,3.797118256E-1,-3.078424555E-1,8.347582940E-1
1.399911113E1,-7.529858668E-1,3.891853017E-1,-2.137636793E-1,8.741554926E-1
1.400904013E1,-6.864914035E-1,5.002214419E-1,1.686220050E-2,8.495741709E-1
1.401896813E1,-6.603723297E-1,4.521282028E-1,1.302210009E-1,8.108446428E-1
1.402889613E1,-6.182033799E-1,3.355389253E-1,1.353998798E-1,7.163064406E-1
1.403882513E1,-6.693206893E-1,3.105495336E-1,1.796527773E-1,7.594118239E-1
1.404875313E1,-8.262644159E-1,5.483413954E-1,1.805976874E-1,1.007971575E0
1.405868112E1,-8.341960908E-1,3.331195668E-1,9.414894283E-2,9.031698551E-1
1.406861012E1,-7.750775977E-1,1.432801632E-1,-8.778951108E-2,7.930835302E-1
1.407853812E1,-6.944781885E-1,4.106490051E-1,-4.563751817E-2,8.080936472E-1
1.408846712E1,-7.701742689E-1,5.238342163E-1,3.144463009E-1,9.830804477E-1
1.409839513E1,-7.747978085E-1,3.743940388E-1,2.123030448E-1,8.863154761E-1
1.410832313E1,-6.711130071E-1,1.096041571E-1,1.646523303E-1,6.996542928E-1
1.411825213E1,-6.327186542E-1,1.493736746E-1,2.952534002E-1,7.140167788E-1
1.412818013E1,-6.305635898E-1,4.961907003E-1,2.234665489E-1,8.329183335E-1
1.413810913E1,-7.770948871E-1,7.468180776E-1,-1.015778303E-2,1.077829711E0
1.414803712E1,-8.945683001E-1,5.577682765E-1,5.580173314E-2,1.055685430E0
1.415796512E1,-9.089612945E-1,3.325389383E-1,1.846451300E-1,9.853357826E-1
1.416789412E1,-7.897428531E-1,4.241698873E-1,1.657305568E-1,9.116361581E-1
1.417782212E1,-7.296049710E-1,5.454114653E-1,-1.320359766E-2,9.110276699E-1
1.418775112E1,-7.759054173E-1,5.862824795E-1,1.241656244E-1,9.803945454E-1
1.419767913E1,-6.838160831E-1,3.652877679E-1,4.588485539E-1,9.008782294E-1
1.420760713E1,-7.028274277E-1,2.951332217E-1,1.970149148E-1,7.873276880E-1
1.421753613E1,-6.206276355E-1,4.585977814E-1,1.945661008E-2,7.719256096E-1
1.422746413E1,-7.025955856E-1,7.106472746E-1,2.580200851E-1,1.032101967E0
1.423739313E1,-6.906788870E-1,7.576235859E-1,2.695338374E-1,1.060037411E0
1.424732112E1,-6.189469995E-1,4.361169549E-1,8.749481142E-2,7.621999269E-1
1.425724912E1,-6.569493697E-1,3.347661792E-1,1.610732496E-2,7.375027559E-1
1.426717812E1,-6.455166013E-1,4.755407101E-1,1.567884099E-1,8.169536431E-1
1.427710612E1,-6.666017340E-1,5.833374562E-1,4.248464102E-1,9.824128113E-1
1.428703512E1,-6.232184637E-1,5.810003241E-1,1.467235976E-1,8.645752970E-1
1.429696313E1,-6.611067400E-1,3.627614783E-1,1.579297864E-1,7.704543006E-1
1.430689113E1,-7.096184570E-1,4.447568373E-1,3.174967933E-1,8.956401133E-1
1.431682013E1,-6.882657411E-1,5.075672258E-1,1.727302587E-1,8.724505495E-1
1.432674813E1,-7.369474659E-1,5.315886841E-1,3.965874016E-2,9.095333486E-1
1.433667713E1,-7.806727984E-1,4.646640484E-1,4.959608316E-3,9.085082794E-1
1.434660512E1,-8.164019904E-1,4.841768648E-1,1.601751173E-1,9.625983142E-1
1.435653312E1,-6.137736024E-1,5.110906849E-1,1.998864824E-1,8.233385264E-1
1.436646212E1,-4.902956106E-1,4.741629233E-1,8.565878570E-2,6.874283171E-1
1.437638962E1,-3.938128247E-1,6.352816350E-1,1.781535512E-1,7.683814056E-1
1.438631863E1,-5.358960720E-1,8.277637882E-1,3.237813807E-1,1.037888179E0
1.439624663E1,-6.578065715E-1,5.290917403E-1,1.540133214E-1,8.581186738E-1
1.440617463E1,-5.973004610E-1,2.600717634E-1,-5.771201849E-4,6.514641171E-1
1.441610363E1,-8.354835016E-1,3.808170225E-1,-4.597373307E-2,9.193301203E-1
1.442603163E1,-9.474252293E-1,3.926713020E-1,6.156474888E-1,1.196171872E0
1.443596063E1,-9.849587258E-1,2.640638768E-1,5.288256919E-1,1.148707985E0
1.444588862E1,-9.527799632E-1,7.934214827E-2,6.810661376E-2,9.585005715E-1
1.445581662E1,-7.775337937E-1,2.436824200E-1,1.254876798E-1,8.244313677E-1
1.446574562E1,-6.625997534E-1,7.322146565E-1,9.313971341E-2,9.918930097E-1
1.447567363E1,-5.199154855E-1,7.501532563E-1,-1.216770494E-1,9.207862533E-1
1.448560263E1,-5.487869167E-1,3.867223448E-1,-9.174398303E-2,6.775973807E-1
1.449553063E1,-5.690601636E-1,2.480831806E-1,-1.118174744E-1,6.307756193E-1
1.450545963E1,-6.185015148E-1,3.825577020E-1,2.809066719E-1,7.796172635E-1
1.451538763E1,-6.921811098E-1,5.445003595E-1,2.321748072E-1,9.107691647E-1
1.452531563E1,-8.133734981E-1,4.561964031E-1,3.863430798E-1,1.009431811E0
1.453524462E1,-9.178306436E-1,3.652218040E-1,3.394454867E-1,1.044520605E0
1.454517262E1,-7.653631067E-1,3.948905031E-1,1.266179466E-1,8.704891148E-1
1.455510162E1,-7.061828524E-1,5.276434946E-1,-1.079787773E-1,8.881223422E-1
1.456502962E1,-5.740630413E-1,5.605801294E-1,9.426588714E-2,8.078889245E-1
1.457495763E1,-6.216212236E-1,3.577138329E-1,1.550453550E-1,7.337650809E-1
1.458488663E1,-5.627717755E-1,2.535857577E-1,-1.161257029E-2,6.173756228E-1
1.459481463E1,-5.678393380E-1,1.633770160E-1,1.248719680E-1,6.039259653E-1
1.460474363E1,-7.476748408E-1,3.451835421E-1,2.221123338E-1,8.529380014E-1
1.461467163E1,-7.366776169E-1,7.278519027E-1,2.012126309E-1,1.054963898E0
1.462460063E1,-7.184515534E-1,6.240004557E-1,1.604592919E-1,9.650369877E-1
1.463452862E1,-7.193902507E-1,4.622999826E-1,-1.521533221E-1,8.685587143E-1
1.464445662E1,-7.118425186E-1,3.992716025E-1,1.362904108E-1,8.274736612E-1
1.465438562E1,-7.132258236E-1,4.079647311E-1,1.231832922E-2,8.217530277E-1
1.466431362E1,-6.211462835E-1,4.212964194E-1,6.738974512E-2,7.535613819E-1
1.467424262E1,-6.396785950E-1,4.047106460E-1,-9.060319126E-2,7.623571014E-1
1.468417063E1,-5.638459090E-1,2.869253389E-1,8.462616742E-2,6.382867282E-1
1.469409963E1,-5.608967196E-1,4.725365934E-1,9.605045736E-2,7.396767216E-1
1.470402763E1,-3.912928940E-1,3.828627805E-1,2.300294638E-3,5.474480149E-1
1.471395563E1,-4.265016838E-1,2.554711742E-1,-1.859227467E-1,5.307885406E-1
1.472388463E1,-5.691540845E-1,7.971962989E-1,-1.326031566E-2,9.796091807E-1
1.473381262E1,-7.757807985E-1,9.779847517E-1,2.945435482E-1,1.282593437E0
1.474374162E1,-9.930737840E-1,7.622369660E-1,1.840463752E-1,1.265335450E0
1.475366962E1,-9.758229630E-1,5.119330494E-1,-1.325821066E-1,1.109902661E0
1.476359762E1,-9.950053386E-1,4.845266014E-1,-5.617244661E-2,1.108132210E0
1.477352662E1,-7.706929900E-1,4.661979923E-1,-2.628990018E-1,9.383091911E-1
1.478345463E1,-6.786008053E-1,4.042827394E-1,-4.450806999E-1,9.066644449E-1
1.479338363E1,-5.823452203E-1,2.624712415E-1,-1.323669291E-1,6.523328231E-1
1.480331163E1,-4.199754237E-1,3.415577568E-1,-1.639149964E-2,5.415807779E-1
1.481324063E1,-5.041543522E-1,5.289512609E-1,1.113707471E-1,7.391647249E-1
1.482316863E1,-6.327291792E-1,4.794671154E-1,2.132000077E-1,8.220031461E-1
1.483309662E1,-6.630778364E-1,4.868039823E-1,1.297304195E-1,8.327546554E-1
1.484302562E1,-4.805178600E-1,4.918542590E-1,-1.615287477E-1,7.063353044E-1
1.485295362E1,-5.765285198E-1,4.987266377E-1,-2.280630451E-1,7.956922432E-1
1.486288262E1,-6.522601220E-1,4.838496035E-1,-1.655259043E-1,8.288259953E-1
1.487281063E1,-6.366142154E-1,4.168277213E-1,2.356427908E-3,7.609392626E-1
1.488273963E1,-6.775266717E-1,4.165044069E-1,8.440338850E-2,7.997763711E-1
1.489266763E1,-7.685260119E-1,4.855526051E-1,1.017514926E-1,9.147387219E-1
1.490259663E1,-7.404615694E-1,6.595184170E-1,1.880359304E-1,1.009259822E0
1.491252463E1,-6.636219929E-1,5.111343928E-1,-3.934474468E-2,8.385705253E-1
1.492245263E1,-7.039741398E-1,2.564406425E-1,-2.447556764E-1,7.881920665E-1
1.493238162E1,-6.053669143E-1,1.756963502E-1,2.113037556E-1,6.648214689E-1
1.494230962E1,-5.223108339E-1,2.087784163E-1,-1.943643719E-1,5.951256534E-1
1.495223862E1,-5.950961703E-1,4.451932954E-1,-6.749499500E-2,7.462520329E-1
1.496216662E1,-5.476520453E-1,4.376072274E-1,3.244859701E-1,7.724726487E-1
1.497209562E1,-6.225271766E-1,3.134346595E-1,-1.491800129E-2,6.971398125E-1
1.498202363E1,-6.872837743E-1,2.468183913E-1,7.196753025E-3,7.302945283E-1
1.499195263E1,-7.655316527E-1,3.648650873E-1,3.482309282E-2,8.487507826E-1
1.500188063E1,-6.470610702E-1,4.043211483E-1,-1.326090038E-2,7.631117029E-1
1.501180863E1,-6.549146848E-1,4.186701059E-1,-2.199015015E-1,8.078084998E-1
1.502173763E1,-6.898720443E-1,2.339777230E-1,-2.907761872E-2,7.290504237E-1
1.503166562E1,-6.228999366E-1,2.394758965E-1,-9.853376985E-2,6.745827894E-1
1.504159462E1,-5.408845144E-1,3.991075881E-1,1.011188239E-1,6.797557954E-1
1.505152262E1,-3.776340541E-1,3.705571324E-1,-8.871454060E-2,5.364609370E-1
1.506145162E1,-3.076801222E-1,5.150205254E-1,-1.174921972E-1,6.113244765E-1
1.507137962E1,-4.853566868E-1,8.914942726E-1,8.570263982E-3,1.015089455E0
1.508130763E1,-6.542638166E-1,6.298494255E-1,2.060038394E-1,9.312405824E-1
1.509123663E1,-8.438501363E-1,5.879471269E-3,-3.757303834E-1,9.237374852E-1
1.510116463E1,-8.050870433E-1,-6.663753737E-2,-2.101705652E-1,8.347319182E-1
1.511109363E1,-8.888666801E-1,5.296024214E-1,1.466452450E-1,1.045020348E0
1.512102163E1,-7.182480703E-1,8.375300270E-1,-3.863489270E-2,1.104006110E0
1.513095062E1,-6.263470164E-1,5.012139702E-1,-1.945590842E-1,8.254570044E-1
1.514087862E1,-5.464315121E-1,2.866407074E-1,-3.042464179E-1,6.879797783E-1
1.515080762E1,-3.766348015E-1,5.049224571E-1,-1.019777799E-1,6.381221897E-1
1.516073562E1,-4.610416983E-1,6.398448752E-1,-1.220752448E-1,7.980371403E-1
1.517066363E1,-5.277987016E-1,3.504570363E-1,-1.262712067E-1,6.460154962E-1
1.518059263E1,-5.898500850E-1,1.389142300E-1,-3.112934822E-1,6.812664076E-1
1.519052063E1,-6.244422859E-1,1.853768725E-1,-1.990099847E-1,6.811003798E-1
1.520044963E1,-8.185392939E-1,3.502821314E-1,8.973604918E-2,8.948501024E-1
1.521037763E1,-8.064184543E-1,4.861039244E-1,1.093534577E-1,9.479271742E-1
1.522030663E1,-6.054033132E-1,6.039031369E-1,-6.800194860E-2,8.578090903E-1
1.523023462E1,-7.115590017E-1,6.193158858E-1,-3.387426513E-1,1.002304825E0
1.524016362E1,-7.131043477E-1,4.366768258E-1,-5.312487781E-2,8.378703441E-1
1.525009162E1,-6.218814978E-1,3.783484742E-1,2.220012367E-2,7.282698749E-1
1.526002062E1,-5.982841820E-1,3.190619833E-1,-5.675886387E-1,8.842518726E-1
1.526994862E1,-6.408037455E-1,2.188803767E-1,6.128057420E-2,6.799215898E-1
1.527987663E1,-6.367239238E-1,4.287291441E-1,-5.219517052E-2,7.693831100E-1
1.528980563E1,-5.689459967E-1,5.029712412E-1,-1.779500681E-1,7.799652834E-1
1.529973363E1,-7.314270365E-1,3.519692359E-1,1.907554704E-1,8.338198260E-1
1.530966263E1,-5.897019312E-1,2.813385618E-1,8.910104156E-2,6.594230430E-1
1.531959063E1,-5.390372694E-1,2.100791842E-1,-6.736401737E-2,5.824365650E-1
1.532951963E1,-7.056509750E-1,2.522369513E-1,-2.357807851E-1,7.855949063E-1
1.533944762E1,-7.083472724E-1,2.453699812E-1,1.545805013E-1,7.654132330E-1
1.534937662E1,-6.023158371E-1,2.179746247E-1,-6.831886768E-3,6.405809702E-1
1.535930462E1,-5.746943944E-1,1.808560064E-1,-3.802999824E-1,7.124679773E-1
1.536923712E1,-6.580811714E-1,3.256443401E-1,-1.537583828E-2,7.344055288E-1
1.537916612E1,-5.611758511E-1,4.280598572E-1,1.450694203E-1,7.205544489E-1
1.538909412E1,-5.965173361E-1,2.795335995E-1,8.380229473E-2,6.640743860E-1
1.539902312E1,-5.700459310E-1,1.249762495E-1,-2.920216441E-2,5.843151486E-1
1.540895112E1,-6.299297516E-1,8.360117792E-2,-5.513281167E-2,6.378403216E-1
1.541888012E1,-6.426912998E-1,5.631328411E-1,2.893202305E-2,8.549899213E-1
1.542880813E1,-6.758752719E-1,5.675614491E-1,1.016690469E-1,8.884086766E-1
1.543873713E1,-7.968344294E-1,1.381837300E-1,-5.252612293E-2,8.104312708E-1
1.544866513E1,-6.859008347E-1,2.123879573E-1,-8.055358171E-2,7.225354517E-1
1.545859413E1,-6.773632421E-1,5.437544009E-1,-5.094912887E-2,8.701066739E-1
1.546852213E1,-6.029165289E-1,4.852611579E-1,6.400128365E-2,7.765841207E-1
1.547845112E1,-6.032475910E-1,3.273919632E-1,-1.641471308E-1,7.057176731E-1
1.548837912E1,-6.330050947E-1,1.577476822E-1,1.079501259E-1,6.612359721E-1
1.549830712E1,-6.393034230E-1,2.950893675E-1,7.047064304E-3,7.041564191E-1
1.550823612E1,-6.888819645E-1,5.719549008E-1,5.116664529E-2,8.968326461E-1
1.551816413E1,-6.417686822E-1,4.992806249E-1,8.075589538E-2,8.171105791E-1
1.552809313E1,-7.024365413E-1,2.639500754E-1,3.554756284E-2,7.512325646E-1
1.553802113E1,-6.677406254E-1,2.171639813E-1,2.444428504E-2,7.025918166E-1
1.554795013E1,-6.440978475E-1,2.161094177E-1,1.940047681E-1,7.065431110E-1
1.555787813E1,-5.959423721E-1,3.704555005E-1,-5.236415505E-2,7.036523243E-1
1.556780713E1,-4.793163668E-1,3.369213168E-1,9.729182124E-2,5.939072753E-1
1.557773512E1,-4.909805023E-1,1.594811989E-1,-3.027162015E-2,5.171194034E-1
1.558766412E1,-4.899312194E-1,2.347151118E-1,-4.541766286E-2,5.451481886E-1
1.559759212E1,-7.113215317E-1,3.590439648E-1,5.917966962E-3,7.968223845E-1
1.560752112E1,-7.937671993E-1,2.851709732E-1,-7.571559548E-3,8.434726902E-1
1.561744912E1,-7.347861157E-1,3.365126329E-1,-1.894673288E-2,8.083998804E-1
1.562737713E1,-6.765648048E-1,3.058992065E-1,1.604739100E-1,7.596486921E-1
1.563730613E1,-6.728629325E-1,2.484121779E-1,5.326357377E-1,8.933946301E-1
1.564723413E1,-6.283882794E-1,3.481210736E-1,3.492302173E-1,7.987627033E-1
1.565716313E1,-4.148915255E-1,2.826999216E-1,2.288880873E-1,5.517644244E-1
1.566709113E1,-5.900910634E-1,3.769820530E-1,-2.315631884E-1,7.375258922E-1
1.567702013E1,-6.095800890E-1,3.358341732E-1,-3.969967067E-2,6.971000937E-1
1.568694812E1,-6.678590316E-1,1.078163709E-1,-1.084307671E-2,6.765926604E-1
1.569687712E1,-6.716974363E-1,2.371170018E-1,-9.981021702E-2,7.192801943E-1
1.570680512E1,-6.175697610E-1,4.503785697E-1,7.890115857E-2,7.684130780E-1
1.571673412E1,-6.662318976E-1,4.570943892E-1,2.011617601E-1,8.326261320E-1
1.572666213E1,-5.940727614E-1,4.300059932E-1,7.240490198E-2,7.369328802E-1
1.573659113E1,-5.961749816E-1,3.309801437E-1,2.230145591E-1,7.174315004E-1
1.574651913E1,-5.762044378E-1,3.764500295E-1,-1.542021865E-1,7.053399841E-1
1.575644813E1,-5.397811448E-1,2.844337489E-1,-1.700341076E-1,6.333860115E-1
1.576637613E1,-5.991939356E-1,4.126791584E-1,1.314997870E-1,7.393440702E-1
1.577630413E1,-5.255156928E-1,3.487351044E-1,3.955612153E-1,7.444807529E-1
1.578623312E1,-6.604339448E-1,1.549652481E-1,7.149390578E-2,6.821279954E-1
1.579616112E1,-5.853484964E-1,2.772099891E-1,5.579296231E-2,6.500700692E-1
1.580609012E1,-6.118370411E-1,4.724667922E-1,1.309378695E-1,7.840370912E-1
1.581601812E1,-5.914959300E-1,6.534533925E-1,-3.642756879E-2,8.821540337E-1
1.582594712E1,-5.873834005E-1,4.547830945E-1,2.480798185E-2,7.432781163E-1
1.583587513E1,-6.009027844E-1,3.737193067E-1,-3.544658142E-1,7.914520137E-1
1.584580413E1,-5.247900533E-1,3.780528244E-1,9.535814703E-2,6.537749722E-1
